subjectID	scanner	order	block	run	trial	onsettime	ImageLeft	ImageRight	bidIndexLeft	bidIndexRight	IsleftGo	Response	PairType	Outcome	RT	bidLeft	bidRight	ixationTime	
MRI_faces_138	 1	 2	 02	 2	 1	 2.032653e+00	 1192.jpg	 1262.jpg	 53	 51	 0	 y	 2	 1	 1002.11	 0.23	 0.25	 3.533430e+00	 
MRI_faces_138	 1	 2	 02	 2	 2	 5.032677e+00	 2053.jpg	 1114.jpg	 12	 17	 0	 b	 1	 0	 1107.08	 0.71	 0.65	 6.641760e+00	 
MRI_faces_138	 1	 2	 02	 2	 3	 8.032733e+00	 1216.jpg	 1246.jpg	 45	 54	 0	 b	 2	 0	 1200.02	 0.32	 0.22	 9.732831e+00	 
MRI_faces_138	 1	 2	 02	 2	 4	 1.303288e+01	 2015.jpg	 2218.jpg	 18	 16	 0	 b	 1	 0	 874.87	 0.64	 0.67	 1.440973e+01	 
MRI_faces_138	 1	 2	 02	 2	 5	 1.803293e+01	 1150.jpg	 1019.jpg	 44	 49	 0	 b	 2	 0	 1270.82	 0.32	 0.29	 1.979963e+01	 
MRI_faces_138	 1	 2	 02	 2	 6	 2.503304e+01	 2053.jpg	 2063.jpg	 12	 11	 0	 b	 1	 0	 932.72	 0.71	 0.72	 2.646650e+01	 
MRI_faces_138	 1	 2	 02	 2	 7	 2.903309e+01	 1114.jpg	 2006.jpg	 17	 7	 1	 b	 1	 1	 852.64	 0.65	 0.81	 3.038314e+01	 
MRI_faces_138	 1	 2	 02	 2	 8	 3.203312e+01	 2112.jpg	 2015.jpg	 8	 18	 1	 b	 1	 1	 663.63	 0.77	 0.64	 3.319637e+01	 
MRI_faces_138	 1	 2	 02	 2	 9	 3.903326e+01	 1013.jpg	 2212.jpg	 56	 6	 0	 y	 4	 1	 832.49	 0.19	 0.82	 4.036662e+01	 
MRI_faces_138	 1	 2	 02	 2	 10	 4.303327e+01	 2063.jpg	 2039.jpg	 11	 15	 1	 b	 1	 1	 896.48	 0.72	 0.70	 4.443175e+01	 
MRI_faces_138	 1	 2	 02	 2	 11	 4.603338e+01	 1127.jpg	 2058.jpg	 43	 47	 1	 y	 2	 0	 1101.38	 0.33	 0.31	 4.763348e+01	 
MRI_faces_138	 1	 2	 02	 2	 12	 5.003338e+01	 1216.jpg	 1146.jpg	 45	 48	 0	 y	 2	 1	 805.38	 0.32	 0.30	 5.133343e+01	 
MRI_faces_138	 1	 2	 02	 2	 13	 5.403352e+01	 1114.jpg	 1031.jpg	 17	 10	 1	 b	 1	 1	 954.24	 0.65	 0.75	 5.548364e+01	 
MRI_faces_138	 1	 2	 02	 2	 14	 5.903419e+01	 2063.jpg	 2015.jpg	 11	 18	 1	 b	 1	 1	 1317.56	 0.72	 0.64	 6.085128e+01	 
MRI_faces_138	 1	 2	 02	 2	 15	 6.303487e+01	 1146.jpg	 1027.jpg	 48	 52	 1	 b	 2	 1	 882.89	 0.30	 0.25	 6.441703e+01	 
MRI_faces_138	 1	 2	 02	 2	 16	 6.703360e+01	 2112.jpg	 2006.jpg	 8	 7	 1	 b	 1	 1	 694.15	 0.77	 0.81	 6.821920e+01	 
MRI_faces_138	 1	 2	 02	 2	 17	 7.003365e+01	 1202.jpg	 1150.jpg	 46	 44	 1	 b	 2	 1	 1028.11	 0.31	 0.32	 7.155313e+01	 
MRI_faces_138	 1	 2	 02	 2	 18	 8.003379e+01	 2039.jpg	 1114.jpg	 15	 17	 0	 y	 1	 1	 751.97	 0.70	 0.65	 8.128386e+01	 
MRI_faces_138	 1	 2	 02	 2	 19	 8.403384e+01	 1173.jpg	 2181.jpg	 55	 5	 0	 y	 4	 1	 889.89	 0.20	 0.82	 8.542218e+01	 
MRI_faces_138	 1	 2	 02	 2	 20	 8.703390e+01	 1127.jpg	 1216.jpg	 43	 45	 1	 y	 2	 0	 1349.86	 0.33	 0.32	 8.888384e+01	 
MRI_faces_138	 1	 2	 02	 2	 21	 9.003400e+01	 1146.jpg	 1150.jpg	 48	 44	 1	 b	 2	 1	 1069.75	 0.30	 0.32	 9.160073e+01	 
MRI_faces_138	 1	 2	 02	 2	 22	 9.403399e+01	 1007.jpg	 1019.jpg	 50	 49	 0	 y	 2	 1	 1177.77	 0.28	 0.29	 9.570739e+01	 
MRI_faces_138	 1	 2	 02	 2	 23	 1.000339e+02	 2063.jpg	 1035.jpg	 11	 13	 1	 b	 1	 1	 958.79	 0.72	 0.71	 1.014916e+02	 
MRI_faces_138	 1	 2	 02	 2	 24	 1.030342e+02	 1019.jpg	 2058.jpg	 49	 47	 1	 y	 2	 0	 1047.55	 0.29	 0.31	 1.045756e+02	 
MRI_faces_138	 1	 2	 02	 2	 25	 1.060342e+02	 1035.jpg	 1114.jpg	 13	 17	 0	 y	 1	 1	 704.55	 0.71	 0.65	 1.072343e+02	 
MRI_faces_138	 1	 2	 02	 2	 26	 1.100342e+02	 2112.jpg	 2039.jpg	 8	 15	 1	 b	 1	 1	 743.54	 0.77	 0.70	 1.112768e+02	 
MRI_faces_138	 1	 2	 02	 2	 27	 1.130342e+02	 2053.jpg	 2125.jpg	 12	 9	 0	 b	 1	 0	 828.51	 0.71	 0.76	 1.143606e+02	 
MRI_faces_138	 1	 2	 02	 2	 28	 1.160344e+02	 1202.jpg	 2058.jpg	 46	 47	 1	 y	 2	 0	 1140.40	 0.31	 0.31	 1.176678e+02	 
MRI_faces_138	 1	 2	 02	 2	 29	 1.300345e+02	 2058.jpg	 1146.jpg	 47	 48	 0	 y	 2	 1	 1086.22	 0.31	 0.30	 1.316179e+02	 
MRI_faces_138	 1	 2	 02	 2	 30	 1.400347e+02	 1019.jpg	 1192.jpg	 49	 53	 1	 y	 2	 0	 1092.08	 0.29	 0.23	 1.416182e+02	 
MRI_faces_138	 1	 2	 02	 2	 31	 1.460348e+02	 1007.jpg	 1127.jpg	 50	 43	 0	 y	 2	 1	 1075.95	 0.28	 0.33	 1.476015e+02	 
MRI_faces_138	 1	 2	 02	 2	 32	 1.500348e+02	 2218.jpg	 2039.jpg	 16	 15	 1	 y	 1	 0	 848.95	 0.67	 0.70	 1.513680e+02	 
MRI_faces_138	 1	 2	 02	 2	 33	 1.560345e+02	 1192.jpg	 1202.jpg	 53	 46	 0	 y	 2	 1	 1129.28	 0.23	 0.31	 1.576517e+02	 
MRI_faces_138	 1	 2	 02	 2	 34	 1.600352e+02	 1114.jpg	 2015.jpg	 17	 18	 1	 b	 1	 1	 821.59	 0.65	 0.64	 1.613522e+02	 
MRI_faces_138	 1	 2	 02	 2	 35	 1.660351e+02	 1246.jpg	 1007.jpg	 54	 50	 1	 y	 2	 0	 1118.63	 0.22	 0.28	 1.676533e+02	 
MRI_faces_138	 1	 2	 02	 2	 36	 1.780218e+02	 1031.jpg	 2112.jpg	 10	 8	 0	 b	 1	 0	 1370.97	 0.75	 0.77	 1.799053e+02	 
MRI_faces_138	 1	 2	 02	 2	 37	 1.810353e+02	 1216.jpg	 1019.jpg	 45	 49	 0	 y	 2	 1	 1103.49	 0.32	 0.29	 1.826354e+02	 
MRI_faces_138	 1	 2	 02	 2	 38	 1.880355e+02	 2006.jpg	 2125.jpg	 7	 9	 0	 y	 1	 1	 800.29	 0.81	 0.76	 1.893355e+02	 
