subjectID	scanner	order	block	run	trial	onsettime	ImageLeft	ImageRight	bidIndexLeft	bidIndexRight	IsleftGo	Response	PairType	Outcome	RT	bidLeft	bidRight	ixationTime	
MRI_faces_138	 1	 2	 01	 1	 1	 2.019023e+00	 1114.jpg	 2053.jpg	 17	 12	 1	 y	 1	 0	 886.89	 0.65	 0.71	 3.413355e+00	 
MRI_faces_138	 1	 2	 01	 1	 2	 5.019140e+00	 1007.jpg	 1127.jpg	 50	 43	 0	 b	 2	 0	 884.76	 0.28	 0.33	 6.402540e+00	 
MRI_faces_138	 1	 2	 01	 1	 3	 8.019136e+00	 2039.jpg	 2125.jpg	 15	 9	 0	 y	 1	 1	 1228.76	 0.70	 0.76	 9.752589e+00	 
MRI_faces_138	 1	 2	 01	 1	 4	 1.301923e+01	 1019.jpg	 1150.jpg	 49	 44	 1	 b	 2	 1	 955.67	 0.29	 0.32	 1.448132e+01	 
MRI_faces_138	 1	 2	 01	 1	 5	 1.801929e+01	 1192.jpg	 1262.jpg	 53	 51	 0	 y	 2	 1	 1107.61	 0.23	 0.25	 1.963220e+01	 
MRI_faces_138	 1	 2	 01	 1	 6	 2.501934e+01	 1150.jpg	 1146.jpg	 44	 48	 0	 y	 2	 1	 1082.55	 0.32	 0.30	 2.660283e+01	 
MRI_faces_138	 1	 2	 01	 1	 7	 2.901948e+01	 2053.jpg	 2125.jpg	 12	 9	 0	 b	 1	 0	 886.42	 0.71	 0.76	 3.040291e+01	 
MRI_faces_138	 1	 2	 01	 1	 8	 3.201948e+01	 2063.jpg	 2039.jpg	 11	 15	 1	 y	 1	 0	 1310.43	 0.72	 0.70	 3.383624e+01	 
MRI_faces_138	 1	 2	 01	 1	 9	 3.901960e+01	 2063.jpg	 2015.jpg	 11	 18	 1	 b	 1	 1	 1068.30	 0.72	 0.64	 4.058631e+01	 
MRI_faces_138	 1	 2	 01	 1	 10	 4.301961e+01	 1007.jpg	 1246.jpg	 50	 54	 0	 y	 2	 1	 1250.29	 0.28	 0.22	 4.476995e+01	 
MRI_faces_138	 1	 2	 01	 1	 11	 4.602002e+01	 1127.jpg	 1027.jpg	 43	 52	 1	 x	 2	 999	 999000.00	 0.33	 0.25	 4.802053e+01	 
MRI_faces_138	 1	 2	 01	 1	 12	 5.002323e+01	 2112.jpg	 1031.jpg	 8	 10	 1	 b	 1	 1	 796.66	 0.77	 0.75	 5.132103e+01	 
MRI_faces_138	 1	 2	 01	 1	 13	 5.402287e+01	 1013.jpg	 2181.jpg	 56	 5	 0	 y	 4	 1	 803.02	 0.19	 0.82	 5.532177e+01	 
MRI_faces_138	 1	 2	 01	 1	 14	 5.902232e+01	 2089.jpg	 2015.jpg	 14	 18	 1	 b	 1	 1	 731.59	 0.71	 0.64	 6.025594e+01	 
MRI_faces_138	 1	 2	 01	 1	 15	 6.302312e+01	 1146.jpg	 1216.jpg	 48	 45	 1	 b	 2	 1	 864.77	 0.30	 0.32	 6.439000e+01	 
MRI_faces_138	 1	 2	 01	 1	 16	 6.702375e+01	 2125.jpg	 1035.jpg	 9	 13	 1	 b	 1	 1	 750.15	 0.76	 0.71	 6.827413e+01	 
MRI_faces_138	 1	 2	 01	 1	 17	 7.002434e+01	 1216.jpg	 1127.jpg	 45	 43	 0	 b	 2	 0	 861.57	 0.32	 0.33	 7.138684e+01	 
MRI_faces_138	 1	 2	 01	 1	 18	 8.002607e+01	 2015.jpg	 2218.jpg	 18	 16	 0	 b	 1	 0	 1116.79	 0.64	 0.67	 8.164304e+01	 
MRI_faces_138	 1	 2	 01	 1	 19	 8.402023e+01	 2112.jpg	 2015.jpg	 8	 18	 1	 b	 1	 1	 824.65	 0.77	 0.64	 8.534372e+01	 
MRI_faces_138	 1	 2	 01	 1	 20	 8.702023e+01	 1262.jpg	 1150.jpg	 51	 44	 1	 y	 2	 0	 1151.68	 0.25	 0.32	 8.867758e+01	 
MRI_faces_138	 1	 2	 01	 1	 21	 9.002035e+01	 1192.jpg	 1146.jpg	 53	 48	 0	 y	 2	 1	 1110.56	 0.23	 0.30	 9.162808e+01	 
MRI_faces_138	 1	 2	 01	 1	 22	 9.402033e+01	 2058.jpg	 1127.jpg	 47	 43	 0	 x	 2	 999	 999000.00	 0.31	 0.33	 9.602045e+01	 
MRI_faces_138	 1	 2	 01	 1	 23	 1.000205e+02	 1031.jpg	 2218.jpg	 10	 16	 0	 b	 1	 0	 880.40	 0.75	 0.67	 1.014038e+02	 
MRI_faces_138	 1	 2	 01	 1	 24	 1.030205e+02	 2058.jpg	 1246.jpg	 47	 54	 0	 b	 2	 0	 808.42	 0.31	 0.22	 1.043303e+02	 
MRI_faces_138	 1	 2	 01	 1	 25	 1.060205e+02	 2125.jpg	 2006.jpg	 9	 7	 1	 b	 1	 1	 751.39	 0.76	 0.81	 1.072706e+02	 
MRI_faces_138	 1	 2	 01	 1	 26	 1.100206e+02	 2053.jpg	 2112.jpg	 12	 8	 0	 y	 1	 1	 761.27	 0.71	 0.77	 1.112874e+02	 
MRI_faces_138	 1	 2	 01	 1	 27	 1.130207e+02	 1114.jpg	 2006.jpg	 17	 7	 1	 b	 1	 1	 1180.19	 0.65	 0.81	 1.147041e+02	 
MRI_faces_138	 1	 2	 01	 1	 28	 1.160207e+02	 1246.jpg	 1027.jpg	 54	 52	 1	 y	 2	 0	 1025.20	 0.22	 0.25	 1.175494e+02	 
MRI_faces_138	 1	 2	 01	 1	 29	 1.300209e+02	 1127.jpg	 1150.jpg	 43	 44	 1	 y	 2	 0	 1073.01	 0.33	 0.32	 1.315876e+02	 
MRI_faces_138	 1	 2	 01	 1	 30	 1.400234e+02	 2089.jpg	 1031.jpg	 14	 10	 1	 b	 1	 1	 897.47	 0.71	 0.75	 1.414211e+02	 
MRI_faces_138	 1	 2	 01	 1	 31	 1.460212e+02	 1027.jpg	 1019.jpg	 52	 49	 0	 y	 2	 1	 1157.70	 0.25	 0.29	 1.476713e+02	 
MRI_faces_138	 1	 2	 01	 1	 32	 1.500217e+02	 2089.jpg	 1035.jpg	 14	 13	 1	 b	 1	 1	 796.21	 0.71	 0.71	 1.513219e+02	 
MRI_faces_138	 1	 2	 01	 1	 33	 1.560247e+02	 1019.jpg	 1192.jpg	 49	 53	 1	 b	 2	 1	 879.17	 0.29	 0.23	 1.574047e+02	 
MRI_faces_138	 1	 2	 01	 1	 34	 1.600249e+02	 1007.jpg	 1202.jpg	 50	 46	 0	 y	 2	 1	 1130.98	 0.28	 0.31	 1.616571e+02	 
MRI_faces_138	 1	 2	 01	 1	 35	 1.660244e+02	 1173.jpg	 2212.jpg	 55	 6	 0	 y	 4	 1	 862.46	 0.20	 0.82	 1.673883e+02	 
MRI_faces_138	 1	 2	 01	 1	 36	 1.780265e+02	 2058.jpg	 1019.jpg	 47	 49	 0	 y	 2	 1	 1098.39	 0.31	 0.29	 1.796218e+02	 
MRI_faces_138	 1	 2	 01	 1	 37	 1.810217e+02	 2006.jpg	 2112.jpg	 7	 8	 0	 y	 1	 1	 706.17	 0.81	 0.77	 1.822274e+02	 
MRI_faces_138	 1	 2	 01	 1	 38	 1.880218e+02	 2218.jpg	 2053.jpg	 16	 12	 1	 y	 1	 0	 767.10	 0.67	 0.71	 1.892885e+02	 
