subjectID	scanner	order	block	run	trial	onsettime	ImageLeft	ImageRight	bidIndexLeft	bidIndexRight	IsleftGo	Response	PairType	Outcome	RT	bidLeft	bidRight	ixationTime	
MRI_faces_110	 1	 2	 02	 2	 1	 2.027371e+00	 2128.jpg	 1052.jpg	 52	 43	 0	 b	 2	 0	 806.22	 0.28	 0.37	 3.331862e+00	 
MRI_faces_110	 1	 2	 02	 2	 2	 5.027919e+00	 1073.jpg	 1114.jpg	 56	 6	 0	 y	 4	 1	 888.67	 0.18	 0.81	 6.415323e+00	 
MRI_faces_110	 1	 2	 02	 2	 3	 8.028443e+00	 2218.jpg	 2181.jpg	 14	 15	 1	 b	 1	 1	 926.15	 0.72	 0.72	 9.448788e+00	 
MRI_faces_110	 1	 2	 02	 2	 4	 1.302931e+01	 2240.jpg	 2041.jpg	 44	 51	 0	 b	 2	 0	 1003.29	 0.36	 0.31	 1.453211e+01	 
MRI_faces_110	 1	 2	 02	 2	 5	 1.803027e+01	 1035.jpg	 1017.jpg	 10	 11	 0	 b	 1	 0	 1208.36	 0.74	 0.74	 1.973213e+01	 
MRI_faces_110	 1	 2	 02	 2	 6	 2.501522e+01	 1226.jpg	 1173.jpg	 49	 47	 1	 b	 2	 1	 1062.38	 0.34	 0.36	 2.658229e+01	 
MRI_faces_110	 1	 2	 02	 2	 7	 2.901556e+01	 1146.jpg	 2149.jpg	 48	 53	 1	 b	 2	 1	 840.02	 0.35	 0.25	 3.036585e+01	 
MRI_faces_110	 1	 2	 02	 2	 8	 3.201610e+01	 2125.jpg	 1031.jpg	 18	 9	 0	 y	 1	 1	 910.50	 0.61	 0.75	 3.343321e+01	 
MRI_faces_110	 1	 2	 02	 2	 9	 3.901731e+01	 2045.jpg	 2128.jpg	 46	 52	 1	 y	 2	 0	 1053.28	 0.36	 0.28	 4.058447e+01	 
MRI_faces_110	 1	 2	 02	 2	 10	 4.301802e+01	 1226.jpg	 2149.jpg	 49	 53	 1	 b	 2	 1	 1022.57	 0.34	 0.25	 4.455169e+01	 
MRI_faces_110	 1	 2	 02	 2	 11	 4.601840e+01	 1145.jpg	 2218.jpg	 7	 14	 0	 y	 1	 1	 1154.18	 0.79	 0.72	 4.768554e+01	 
MRI_faces_110	 1	 2	 02	 2	 12	 5.001920e+01	 2153.jpg	 1204.jpg	 54	 50	 1	 b	 2	 1	 884.39	 0.22	 0.31	 5.141602e+01	 
MRI_faces_110	 1	 2	 02	 2	 13	 5.401996e+01	 1183.jpg	 1145.jpg	 16	 7	 1	 b	 1	 1	 1104.65	 0.61	 0.79	 5.563262e+01	 
MRI_faces_110	 1	 2	 02	 2	 14	 5.902076e+01	 2149.jpg	 2041.jpg	 53	 51	 0	 y	 2	 1	 787.83	 0.25	 0.31	 6.031622e+01	 
MRI_faces_110	 1	 2	 02	 2	 15	 6.302148e+01	 1183.jpg	 1050.jpg	 16	 12	 1	 b	 1	 1	 879.12	 0.61	 0.74	 6.440519e+01	 
MRI_faces_110	 1	 2	 02	 2	 16	 6.702218e+01	 2041.jpg	 1019.jpg	 51	 45	 1	 b	 2	 1	 820.43	 0.31	 0.36	 6.834960e+01	 
MRI_faces_110	 1	 2	 02	 2	 17	 7.002268e+01	 2153.jpg	 2128.jpg	 54	 52	 1	 b	 2	 1	 915.91	 0.22	 0.28	 7.143982e+01	 
MRI_faces_110	 1	 2	 02	 2	 18	 8.002442e+01	 2149.jpg	 2153.jpg	 53	 54	 0	 y	 2	 1	 1018.17	 0.25	 0.22	 8.154969e+01	 
MRI_faces_110	 1	 2	 02	 2	 19	 8.402519e+01	 2125.jpg	 2218.jpg	 18	 14	 0	 y	 1	 1	 944.40	 0.61	 0.72	 8.547551e+01	 
MRI_faces_110	 1	 2	 02	 2	 20	 8.702564e+01	 2209.jpg	 1060.jpg	 8	 13	 1	 b	 1	 1	 817.92	 0.77	 0.73	 8.834268e+01	 
MRI_faces_110	 1	 2	 02	 2	 21	 9.002627e+01	 2240.jpg	 2153.jpg	 44	 54	 0	 b	 2	 0	 779.36	 0.36	 0.22	 9.130979e+01	 
MRI_faces_110	 1	 2	 02	 2	 22	 9.402683e+01	 1052.jpg	 2149.jpg	 43	 53	 1	 b	 2	 1	 985.75	 0.37	 0.25	 9.551667e+01	 
MRI_faces_110	 1	 2	 02	 2	 23	 1.000279e+02	 1035.jpg	 2218.jpg	 10	 14	 0	 b	 1	 0	 1106.67	 0.74	 0.72	 1.016334e+02	 
MRI_faces_110	 1	 2	 02	 2	 24	 1.030285e+02	 1019.jpg	 1052.jpg	 45	 43	 0	 y	 2	 1	 1202.13	 0.36	 0.37	 1.047334e+02	 
MRI_faces_110	 1	 2	 02	 2	 25	 1.060290e+02	 2218.jpg	 1060.jpg	 14	 13	 1	 b	 1	 1	 1080.55	 0.72	 0.73	 1.076000e+02	 
MRI_faces_110	 1	 2	 02	 2	 26	 1.100296e+02	 1146.jpg	 1173.jpg	 48	 47	 1	 b	 2	 1	 1078.95	 0.35	 0.36	 1.116002e+02	 
MRI_faces_110	 1	 2	 02	 2	 27	 1.130302e+02	 1017.jpg	 1060.jpg	 11	 13	 1	 y	 1	 0	 872.41	 0.74	 0.73	 1.144002e+02	 
MRI_faces_110	 1	 2	 02	 2	 28	 1.160166e+02	 2209.jpg	 1050.jpg	 8	 12	 1	 b	 1	 1	 782.96	 0.77	 0.74	 1.173146e+02	 
MRI_faces_110	 1	 2	 02	 2	 29	 1.300168e+02	 2218.jpg	 1050.jpg	 14	 12	 1	 b	 1	 1	 1006.79	 0.72	 0.74	 1.315337e+02	 
MRI_faces_110	 1	 2	 02	 2	 30	 1.400198e+02	 2240.jpg	 1146.jpg	 44	 48	 0	 b	 2	 0	 739.79	 0.36	 0.35	 1.412686e+02	 
MRI_faces_110	 1	 2	 02	 2	 31	 1.460205e+02	 2181.jpg	 2209.jpg	 15	 8	 0	 y	 1	 1	 874.08	 0.72	 0.77	 1.474030e+02	 
MRI_faces_110	 1	 2	 02	 2	 32	 1.500200e+02	 1150.jpg	 1114.jpg	 55	 6	 0	 y	 4	 1	 1027.55	 0.18	 0.81	 1.515537e+02	 
MRI_faces_110	 1	 2	 02	 2	 33	 1.560210e+02	 1146.jpg	 1019.jpg	 48	 45	 1	 b	 2	 1	 894.62	 0.35	 0.36	 1.574215e+02	 
MRI_faces_110	 1	 2	 02	 2	 34	 1.600218e+02	 1017.jpg	 1145.jpg	 11	 7	 1	 b	 1	 1	 1117.90	 0.74	 0.79	 1.616387e+02	 
MRI_faces_110	 1	 2	 02	 2	 35	 1.660228e+02	 1173.jpg	 2045.jpg	 47	 46	 0	 b	 2	 0	 960.80	 0.36	 0.36	 1.674899e+02	 
MRI_faces_110	 1	 2	 02	 2	 36	 1.780248e+02	 1145.jpg	 2063.jpg	 7	 17	 0	 y	 1	 1	 954.75	 0.79	 0.61	 1.794843e+02	 
MRI_faces_110	 1	 2	 02	 2	 37	 1.810253e+02	 1050.jpg	 1017.jpg	 12	 11	 0	 y	 1	 1	 1141.28	 0.74	 0.74	 1.826678e+02	 
MRI_faces_110	 1	 2	 02	 2	 38	 1.880266e+02	 2181.jpg	 2063.jpg	 15	 17	 0	 y	 1	 1	 795.01	 0.72	 0.61	 1.893179e+02	 
