subjectID	scanner	order	block	run	trial	onsettime	ImageLeft	ImageRight	bidIndexLeft	bidIndexRight	IsleftGo	Response	PairType	Outcome	RT	bidLeft	bidRight	ixationTime	
MRI_faces_114	 1	 2	 02	 2	 1	 2.015550e+00	 2212.jpg	 2006.jpg	 11	 7	 1	 b	 1	 1	 815.23	 0.74	 0.80	 3.333636e+00	 
MRI_faces_114	 1	 2	 02	 2	 2	 6.016320e+00	 2181.jpg	 2153.jpg	 10	 8	 0	 y	 1	 1	 1273.45	 0.75	 0.78	 7.791137e+00	 
MRI_faces_114	 1	 2	 02	 2	 3	 1.301748e+01	 1191.jpg	 2240.jpg	 45	 54	 0	 b	 2	 0	 780.29	 0.35	 0.25	 1.429132e+01	 
MRI_faces_114	 1	 2	 02	 2	 4	 1.601799e+01	 2248.jpg	 2024.jpg	 5	 55	 1	 b	 4	 1	 1188.80	 0.82	 0.21	 1.770173e+01	 
MRI_faces_114	 1	 2	 02	 2	 5	 2.101885e+01	 2089.jpg	 1192.jpg	 14	 15	 1	 y	 1	 0	 888.93	 0.72	 0.68	 2.240806e+01	 
MRI_faces_114	 1	 2	 02	 2	 6	 3.100801e+01	 1191.jpg	 1183.jpg	 45	 46	 0	 b	 2	 0	 809.76	 0.35	 0.33	 3.232481e+01	 
MRI_faces_114	 1	 2	 02	 2	 7	 3.400814e+01	 1146.jpg	 2212.jpg	 13	 11	 0	 b	 1	 0	 930.64	 0.73	 0.74	 3.544161e+01	 
MRI_faces_114	 1	 2	 02	 2	 8	 3.700807e+01	 2181.jpg	 2212.jpg	 10	 11	 0	 y	 1	 1	 1060.70	 0.75	 0.74	 3.857487e+01	 
MRI_faces_114	 1	 2	 02	 2	 9	 4.600825e+01	 2006.jpg	 2153.jpg	 7	 8	 0	 x	 1	 999	 999000.00	 0.80	 0.78	 4.800852e+01	 
MRI_faces_114	 1	 2	 02	 2	 10	 4.900830e+01	 2053.jpg	 2153.jpg	 12	 8	 0	 y	 1	 1	 699.48	 0.73	 0.78	 5.020837e+01	 
MRI_faces_114	 1	 2	 02	 2	 11	 5.900888e+01	 1019.jpg	 2181.jpg	 9	 10	 1	 b	 1	 1	 913.88	 0.76	 0.75	 6.042590e+01	 
MRI_faces_114	 1	 2	 02	 2	 12	 6.400986e+01	 2112.jpg	 1246.jpg	 47	 43	 0	 b	 2	 0	 1135.92	 0.32	 0.37	 6.564366e+01	 
MRI_faces_114	 1	 2	 02	 2	 13	 6.901072e+01	 1216.jpg	 2053.jpg	 16	 12	 1	 b	 1	 1	 990.06	 0.67	 0.73	 7.050875e+01	 
MRI_faces_114	 1	 2	 02	 2	 14	 7.701209e+01	 2112.jpg	 2043.jpg	 47	 49	 0	 b	 2	 0	 875.72	 0.32	 0.30	 7.839216e+01	 
MRI_faces_114	 1	 2	 02	 2	 15	 8.401324e+01	 1210.jpg	 2153.jpg	 18	 8	 0	 b	 1	 0	 809.52	 0.65	 0.78	 8.532553e+01	 
MRI_faces_114	 1	 2	 02	 2	 16	 8.801394e+01	 2153.jpg	 1146.jpg	 8	 13	 1	 y	 1	 0	 1241.82	 0.78	 0.73	 8.975902e+01	 
MRI_faces_114	 1	 2	 02	 2	 17	 9.101451e+01	 1226.jpg	 2240.jpg	 44	 54	 0	 y	 2	 1	 1299.25	 0.36	 0.25	 9.281491e+01	 
MRI_faces_114	 1	 2	 02	 2	 18	 9.601546e+01	 2045.jpg	 1204.jpg	 51	 50	 1	 x	 2	 999	 999000.00	 0.26	 0.29	 9.801581e+01	 
MRI_faces_114	 1	 2	 02	 2	 19	 9.901584e+01	 1246.jpg	 1191.jpg	 43	 45	 1	 y	 2	 0	 1097.92	 0.37	 0.35	 1.006163e+02	 
MRI_faces_114	 1	 2	 02	 2	 20	 1.070173e+02	 1246.jpg	 1226.jpg	 43	 44	 1	 y	 2	 0	 1068.46	 0.37	 0.36	 1.085844e+02	 
MRI_faces_114	 1	 2	 02	 2	 21	 1.130184e+02	 1192.jpg	 2212.jpg	 15	 11	 0	 y	 1	 1	 833.37	 0.68	 0.74	 1.143520e+02	 
MRI_faces_114	 1	 2	 02	 2	 22	 1.180193e+02	 2128.jpg	 1183.jpg	 52	 46	 0	 y	 2	 1	 1056.51	 0.26	 0.33	 1.195760e+02	 
MRI_faces_114	 1	 2	 02	 2	 23	 1.230093e+02	 1210.jpg	 2089.jpg	 18	 14	 0	 b	 1	 0	 893.50	 0.65	 0.72	 1.244095e+02	 
MRI_faces_114	 1	 2	 02	 2	 24	 1.260093e+02	 1019.jpg	 1210.jpg	 9	 18	 1	 y	 1	 0	 1116.48	 0.76	 0.65	 1.276261e+02	 
MRI_faces_114	 1	 2	 02	 2	 25	 1.400110e+02	 2024.jpg	 1073.jpg	 55	 6	 0	 y	 4	 1	 940.73	 0.21	 0.81	 1.414597e+02	 
MRI_faces_114	 1	 2	 02	 2	 26	 1.430095e+02	 2089.jpg	 2053.jpg	 14	 12	 1	 b	 1	 1	 1186.26	 0.72	 0.73	 1.446931e+02	 
MRI_faces_114	 1	 2	 02	 2	 27	 1.470096e+02	 1226.jpg	 1080.jpg	 44	 48	 0	 b	 2	 0	 1096.15	 0.36	 0.31	 1.486098e+02	 
MRI_faces_114	 1	 2	 02	 2	 28	 1.510097e+02	 1216.jpg	 1192.jpg	 16	 15	 1	 y	 1	 0	 930.11	 0.67	 0.68	 1.524432e+02	 
MRI_faces_114	 1	 2	 02	 2	 29	 1.540104e+02	 1183.jpg	 2112.jpg	 46	 47	 1	 y	 2	 0	 1013.37	 0.33	 0.32	 1.555267e+02	 
MRI_faces_114	 1	 2	 02	 2	 30	 1.570098e+02	 1192.jpg	 2153.jpg	 15	 8	 0	 y	 1	 1	 934.02	 0.68	 0.78	 1.584432e+02	 
MRI_faces_114	 1	 2	 02	 2	 31	 1.630104e+02	 2043.jpg	 1226.jpg	 49	 44	 1	 b	 2	 1	 1021.37	 0.30	 0.36	 1.645275e+02	 
MRI_faces_114	 1	 2	 02	 2	 32	 1.690115e+02	 2043.jpg	 1191.jpg	 49	 45	 1	 y	 2	 0	 1035.30	 0.30	 0.35	 1.705451e+02	 
MRI_faces_114	 1	 2	 02	 2	 33	 1.720140e+02	 2240.jpg	 1150.jpg	 54	 53	 1	 b	 2	 1	 1308.78	 0.25	 0.26	 1.738268e+02	 
MRI_faces_114	 1	 2	 02	 2	 34	 1.750124e+02	 2045.jpg	 1191.jpg	 51	 45	 1	 y	 2	 0	 941.37	 0.26	 0.35	 1.764601e+02	 
MRI_faces_114	 1	 2	 02	 2	 35	 1.790132e+02	 1019.jpg	 1192.jpg	 9	 15	 1	 y	 1	 0	 904.61	 0.76	 0.68	 1.804135e+02	 
MRI_faces_114	 1	 2	 02	 2	 36	 1.820155e+02	 1226.jpg	 1183.jpg	 44	 46	 0	 b	 2	 0	 966.32	 0.36	 0.33	 1.834807e+02	 
MRI_faces_114	 1	 2	 02	 2	 37	 1.850142e+02	 2128.jpg	 2043.jpg	 52	 49	 0	 y	 2	 1	 981.61	 0.26	 0.30	 1.864978e+02	 
MRI_faces_114	 1	 2	 02	 2	 38	 1.880149e+02	 2045.jpg	 1226.jpg	 51	 44	 1	 y	 2	 0	 989.83	 0.26	 0.36	 1.894984e+02	 
