subjectID	scanner	order	block	run	trial	onsettime	ImageLeft	ImageRight	bidIndexLeft	bidIndexRight	IsleftGo	Response	PairType	Outcome	RT	bidLeft	bidRight	ixationTime	
MRI_faces_131	 1	 1	 01	 2	 1	 2.028691e+00	 2053.jpg	 1146.jpg	 45	 48	 1	 y	 2	 0	 857.63	 0.32	 0.31	 3.383751e+00	 
MRI_faces_131	 1	 1	 01	 2	 2	 5.028772e+00	 2058.jpg	 2112.jpg	 16	 13	 0	 y	 1	 1	 1025.57	 0.67	 0.69	 6.549961e+00	 
MRI_faces_131	 1	 1	 01	 2	 3	 8.028830e+00	 2194.jpg	 2094.jpg	 56	 6	 0	 y	 4	 1	 1018.51	 0.20	 0.85	 9.550442e+00	 
MRI_faces_131	 1	 1	 01	 2	 4	 1.302883e+01	 1052.jpg	 1035.jpg	 47	 46	 1	 b	 2	 1	 1067.50	 0.31	 0.31	 1.459568e+01	 
MRI_faces_131	 1	 1	 01	 2	 5	 1.802901e+01	 1150.jpg	 2053.jpg	 54	 45	 0	 b	 2	 0	 1111.32	 0.24	 0.32	 1.963556e+01	 
MRI_faces_131	 1	 1	 01	 2	 6	 2.502903e+01	 1210.jpg	 2006.jpg	 14	 10	 0	 y	 1	 1	 1135.30	 0.69	 0.73	 2.666255e+01	 
MRI_faces_131	 1	 1	 01	 2	 7	 2.902918e+01	 1019.jpg	 2053.jpg	 43	 45	 0	 b	 2	 0	 1033.14	 0.33	 0.32	 3.056260e+01	 
MRI_faces_131	 1	 1	 01	 2	 8	 3.202913e+01	 1019.jpg	 1183.jpg	 43	 53	 0	 b	 2	 0	 1131.19	 0.33	 0.26	 3.366267e+01	 
MRI_faces_131	 1	 1	 01	 2	 9	 3.902920e+01	 2248.jpg	 2089.jpg	 8	 12	 0	 b	 1	 0	 1111.14	 0.81	 0.70	 4.063930e+01	 
MRI_faces_131	 1	 1	 01	 2	 10	 4.302927e+01	 2045.jpg	 1150.jpg	 52	 54	 1	 b	 2	 1	 1180.05	 0.27	 0.24	 4.470670e+01	 
MRI_faces_131	 1	 1	 01	 2	 11	 4.602940e+01	 2006.jpg	 2248.jpg	 10	 8	 1	 b	 1	 1	 1111.93	 0.73	 0.81	 4.764046e+01	 
MRI_faces_131	 1	 1	 01	 2	 12	 5.002944e+01	 2010.jpg	 2153.jpg	 9	 7	 0	 y	 1	 1	 1033.90	 0.78	 0.81	 5.156290e+01	 
MRI_faces_131	 1	 1	 01	 2	 13	 5.402951e+01	 2089.jpg	 2058.jpg	 12	 16	 1	 b	 1	 1	 1101.80	 0.70	 0.67	 5.562961e+01	 
MRI_faces_131	 1	 1	 01	 2	 14	 5.902955e+01	 2112.jpg	 1210.jpg	 13	 14	 1	 b	 1	 1	 980.77	 0.69	 0.69	 6.051303e+01	 
MRI_faces_131	 1	 1	 01	 2	 15	 6.302958e+01	 1035.jpg	 1183.jpg	 46	 53	 0	 b	 2	 0	 1315.75	 0.31	 0.26	 6.484647e+01	 
MRI_faces_131	 1	 1	 01	 2	 16	 6.702967e+01	 1216.jpg	 1183.jpg	 51	 53	 0	 b	 2	 0	 1296.66	 0.28	 0.26	 6.882760e+01	 
MRI_faces_131	 1	 1	 01	 2	 17	 7.002971e+01	 1114.jpg	 2058.jpg	 18	 16	 1	 y	 1	 0	 1248.62	 0.67	 0.67	 7.177980e+01	 
MRI_faces_131	 1	 1	 01	 2	 18	 8.002986e+01	 2089.jpg	 1202.jpg	 12	 11	 1	 b	 1	 1	 1040.48	 0.70	 0.72	 8.156335e+01	 
MRI_faces_131	 1	 1	 01	 2	 19	 8.403010e+01	 1017.jpg	 1080.jpg	 49	 50	 0	 y	 2	 1	 1184.24	 0.30	 0.29	 8.571379e+01	 
MRI_faces_131	 1	 1	 01	 2	 20	 8.703062e+01	 2089.jpg	 2010.jpg	 12	 9	 1	 y	 1	 0	 1082.71	 0.70	 0.78	 8.861433e+01	 
MRI_faces_131	 1	 1	 01	 2	 21	 9.003114e+01	 1035.jpg	 1080.jpg	 46	 50	 0	 b	 2	 0	 891.19	 0.31	 0.29	 9.141492e+01	 
MRI_faces_131	 1	 1	 01	 2	 22	 9.403180e+01	 1013.jpg	 1017.jpg	 44	 49	 1	 b	 2	 1	 995.55	 0.33	 0.30	 9.551559e+01	 
MRI_faces_131	 1	 1	 01	 2	 23	 1.000302e+02	 1013.jpg	 1150.jpg	 44	 54	 1	 b	 2	 1	 931.09	 0.33	 0.24	 1.014500e+02	 
MRI_faces_131	 1	 1	 01	 2	 24	 1.030302e+02	 1210.jpg	 2209.jpg	 14	 15	 0	 b	 1	 0	 983.15	 0.69	 0.68	 1.045137e+02	 
MRI_faces_131	 1	 1	 01	 2	 25	 1.060302e+02	 1216.jpg	 1080.jpg	 51	 50	 0	 b	 2	 0	 953.13	 0.28	 0.29	 1.074843e+02	 
MRI_faces_131	 1	 1	 01	 2	 26	 1.100303e+02	 2112.jpg	 1202.jpg	 13	 11	 1	 b	 1	 1	 896.07	 0.69	 0.72	 1.114184e+02	 
MRI_faces_131	 1	 1	 01	 2	 27	 1.130304e+02	 1114.jpg	 2063.jpg	 18	 17	 1	 y	 1	 0	 981.96	 0.67	 0.67	 1.145139e+02	 
MRI_faces_131	 1	 1	 01	 2	 28	 1.160304e+02	 2045.jpg	 1216.jpg	 52	 51	 1	 b	 2	 1	 907.95	 0.27	 0.28	 1.174361e+02	 
MRI_faces_131	 1	 1	 01	 2	 29	 1.300305e+02	 1150.jpg	 1080.jpg	 54	 50	 0	 b	 2	 0	 758.80	 0.24	 0.29	 1.312884e+02	 
MRI_faces_131	 1	 1	 01	 2	 30	 1.400307e+02	 1183.jpg	 1146.jpg	 53	 48	 1	 y	 2	 0	 964.59	 0.26	 0.31	 1.414903e+02	 
MRI_faces_131	 1	 1	 01	 2	 31	 1.460309e+02	 2153.jpg	 2248.jpg	 7	 8	 1	 y	 1	 0	 879.45	 0.81	 0.81	 1.474079e+02	 
MRI_faces_131	 1	 1	 01	 2	 32	 1.500309e+02	 1146.jpg	 1080.jpg	 48	 50	 0	 y	 2	 1	 950.47	 0.31	 0.29	 1.514810e+02	 
MRI_faces_131	 1	 1	 01	 2	 33	 1.560310e+02	 2248.jpg	 2112.jpg	 8	 13	 0	 b	 1	 0	 1023.30	 0.81	 0.69	 1.575477e+02	 
MRI_faces_131	 1	 1	 01	 2	 34	 1.600310e+02	 1114.jpg	 2248.jpg	 18	 8	 1	 y	 1	 0	 1129.35	 0.67	 0.81	 1.616605e+02	 
MRI_faces_131	 1	 1	 01	 2	 35	 1.660311e+02	 2058.jpg	 2209.jpg	 16	 15	 0	 y	 1	 1	 1011.21	 0.67	 0.68	 1.675313e+02	 
MRI_faces_131	 1	 1	 01	 2	 36	 1.780312e+02	 2212.jpg	 2110.jpg	 5	 55	 1	 b	 4	 1	 743.12	 0.86	 0.22	 1.792648e+02	 
MRI_faces_131	 1	 1	 01	 2	 37	 1.810313e+02	 1202.jpg	 2153.jpg	 11	 7	 0	 y	 1	 1	 845.06	 0.72	 0.81	 1.823647e+02	 
MRI_faces_131	 1	 1	 01	 2	 38	 1.880316e+02	 1052.jpg	 1150.jpg	 47	 54	 1	 b	 2	 1	 993.72	 0.31	 0.24	 1.895154e+02	 
