subjectID	scanner	order	block	run	trial	onsettime	ImageLeft	ImageRight	bidIndexLeft	bidIndexRight	IsleftGo	Response	PairType	Outcome	RT	bidLeft	bidRight	ixationTime	
MRI_faces_144	 1	 2	 01	 2	 1	 2.032615e+00	 1114.jpg	 1216.jpg	 51	 47	 1	 y	 2	 0	 814.57	 0.23	 0.30	 3.350577e+00	 
MRI_faces_144	 1	 2	 01	 2	 2	 9.033849e+00	 2194.jpg	 2229.jpg	 7	 9	 0	 y	 1	 1	 1403.33	 0.81	 0.80	 1.093426e+01	 
MRI_faces_144	 1	 2	 01	 2	 3	 2.202785e+01	 1150.jpg	 1146.jpg	 48	 53	 1	 b	 2	 1	 1401.34	 0.28	 0.19	 2.392799e+01	 
MRI_faces_144	 1	 2	 01	 2	 4	 2.602792e+01	 1127.jpg	 1191.jpg	 54	 50	 1	 y	 2	 0	 1035.26	 0.17	 0.25	 2.756141e+01	 
MRI_faces_144	 1	 2	 01	 2	 5	 3.102806e+01	 1060.jpg	 1146.jpg	 49	 53	 1	 y	 2	 0	 753.15	 0.27	 0.19	 3.227812e+01	 
MRI_faces_144	 1	 2	 01	 2	 6	 3.402807e+01	 1204.jpg	 1114.jpg	 44	 51	 0	 y	 2	 1	 871.10	 0.34	 0.23	 3.540520e+01	 
MRI_faces_144	 1	 2	 01	 2	 7	 3.902817e+01	 1145.jpg	 1060.jpg	 45	 49	 0	 y	 2	 1	 767.03	 0.32	 0.27	 4.029493e+01	 
MRI_faces_144	 1	 2	 01	 2	 8	 4.302817e+01	 1216.jpg	 1150.jpg	 47	 48	 0	 y	 2	 1	 757.01	 0.30	 0.28	 4.429013e+01	 
MRI_faces_144	 1	 2	 01	 2	 9	 5.202831e+01	 2045.jpg	 2024.jpg	 13	 14	 0	 b	 1	 0	 901.88	 0.73	 0.73	 5.342851e+01	 
MRI_faces_144	 1	 2	 01	 2	 10	 5.702835e+01	 2041.jpg	 2153.jpg	 17	 10	 1	 y	 1	 0	 793.88	 0.67	 0.79	 5.832853e+01	 
MRI_faces_144	 1	 2	 01	 2	 11	 6.102846e+01	 2041.jpg	 2045.jpg	 17	 13	 1	 y	 1	 0	 804.74	 0.67	 0.73	 6.232865e+01	 
MRI_faces_144	 1	 2	 01	 2	 12	 6.802850e+01	 2128.jpg	 2041.jpg	 18	 17	 0	 y	 1	 1	 983.71	 0.65	 0.67	 6.951202e+01	 
MRI_faces_144	 1	 2	 01	 2	 13	 7.202863e+01	 1204.jpg	 1127.jpg	 44	 54	 0	 y	 2	 1	 1034.55	 0.34	 0.17	 7.356215e+01	 
MRI_faces_144	 1	 2	 01	 2	 14	 7.802927e+01	 1060.jpg	 1204.jpg	 49	 44	 1	 y	 2	 0	 851.92	 0.27	 0.34	 7.937963e+01	 
MRI_faces_144	 1	 2	 01	 2	 15	 8.303011e+01	 1035.jpg	 1204.jpg	 46	 44	 1	 b	 2	 1	 814.07	 0.31	 0.34	 8.434718e+01	 
MRI_faces_144	 1	 2	 01	 2	 16	 8.703083e+01	 1183.jpg	 1114.jpg	 52	 51	 0	 y	 2	 1	 1046.36	 0.23	 0.23	 8.858121e+01	 
MRI_faces_144	 1	 2	 01	 2	 17	 9.003139e+01	 2128.jpg	 2024.jpg	 18	 14	 0	 y	 1	 1	 606.75	 0.65	 0.73	 9.113171e+01	 
MRI_faces_144	 1	 2	 01	 2	 18	 9.303194e+01	 2041.jpg	 2058.jpg	 17	 15	 1	 y	 1	 0	 654.25	 0.67	 0.70	 9.418224e+01	 
MRI_faces_144	 1	 2	 01	 2	 19	 9.703264e+01	 1035.jpg	 1216.jpg	 46	 47	 1	 y	 2	 0	 794.57	 0.31	 0.30	 9.832913e+01	 
MRI_faces_144	 1	 2	 01	 2	 20	 1.100348e+02	 1073.jpg	 2015.jpg	 56	 5	 0	 y	 4	 1	 735.33	 0.15	 0.86	 1.112686e+02	 
MRI_faces_144	 1	 2	 01	 2	 21	 1.140292e+02	 2125.jpg	 2058.jpg	 11	 15	 1	 b	 1	 1	 764.98	 0.77	 0.70	 1.152959e+02	 
MRI_faces_144	 1	 2	 01	 2	 22	 1.170292e+02	 1019.jpg	 1216.jpg	 43	 47	 1	 b	 2	 1	 793.03	 0.35	 0.30	 1.183198e+02	 
MRI_faces_144	 1	 2	 01	 2	 23	 1.220293e+02	 2153.jpg	 2024.jpg	 10	 14	 0	 y	 1	 1	 773.85	 0.79	 0.73	 1.233040e+02	 
MRI_faces_144	 1	 2	 01	 2	 24	 1.250294e+02	 2125.jpg	 2063.jpg	 11	 12	 1	 b	 1	 1	 720.84	 0.77	 0.77	 1.262545e+02	 
MRI_faces_144	 1	 2	 01	 2	 25	 1.290294e+02	 2153.jpg	 2125.jpg	 10	 11	 0	 y	 1	 1	 716.76	 0.79	 0.77	 1.302462e+02	 
MRI_faces_144	 1	 2	 01	 2	 26	 1.350294e+02	 1060.jpg	 1191.jpg	 49	 50	 1	 y	 2	 0	 863.76	 0.27	 0.25	 1.363962e+02	 
MRI_faces_144	 1	 2	 01	 2	 27	 1.380295e+02	 2045.jpg	 2006.jpg	 13	 8	 0	 y	 1	 1	 746.74	 0.73	 0.80	 1.392797e+02	 
MRI_faces_144	 1	 2	 01	 2	 28	 1.420296e+02	 1145.jpg	 1019.jpg	 45	 43	 0	 y	 2	 1	 787.63	 0.32	 0.35	 1.433132e+02	 
MRI_faces_144	 1	 2	 01	 2	 29	 1.470296e+02	 1191.jpg	 1114.jpg	 50	 51	 0	 y	 2	 1	 819.62	 0.25	 0.23	 1.483464e+02	 
MRI_faces_144	 1	 2	 01	 2	 30	 1.510297e+02	 2153.jpg	 2229.jpg	 10	 9	 0	 y	 1	 1	 772.60	 0.79	 0.80	 1.522964e+02	 
MRI_faces_144	 1	 2	 01	 2	 31	 1.630298e+02	 2058.jpg	 2006.jpg	 15	 8	 0	 y	 1	 1	 713.41	 0.70	 0.80	 1.642467e+02	 
MRI_faces_144	 1	 2	 01	 2	 32	 1.690300e+02	 2125.jpg	 2128.jpg	 11	 18	 1	 b	 1	 1	 735.24	 0.77	 0.65	 1.702633e+02	 
MRI_faces_144	 1	 2	 01	 2	 33	 1.720300e+02	 2229.jpg	 2045.jpg	 9	 13	 1	 b	 1	 1	 913.18	 0.80	 0.73	 1.734467e+02	 
MRI_faces_144	 1	 2	 01	 2	 34	 1.760300e+02	 1191.jpg	 1035.jpg	 50	 46	 0	 y	 2	 1	 717.15	 0.25	 0.31	 1.772469e+02	 
MRI_faces_144	 1	 2	 01	 2	 35	 1.790302e+02	 1150.jpg	 1191.jpg	 48	 50	 1	 y	 2	 0	 852.98	 0.28	 0.25	 1.803805e+02	 
MRI_faces_144	 1	 2	 01	 2	 36	 1.820307e+02	 2128.jpg	 2229.jpg	 18	 9	 0	 y	 1	 1	 762.48	 0.65	 0.80	 1.832970e+02	 
MRI_faces_144	 1	 2	 01	 2	 37	 1.850312e+02	 2212.jpg	 1013.jpg	 6	 55	 1	 b	 4	 1	 914.99	 0.81	 0.16	 1.864484e+02	 
MRI_faces_144	 1	 2	 01	 2	 38	 1.880318e+02	 2125.jpg	 2194.jpg	 11	 7	 1	 b	 1	 1	 885.36	 0.77	 0.81	 1.894156e+02	 
