subjectID	scanner	order	block	run	trial	onsettime	ImageLeft	ImageRight	bidIndexLeft	bidIndexRight	IsleftGo	Response	PairType	Outcome	RT	bidLeft	bidRight	ixationTime	
MRI_faces_134	 1	 2	 02	 1	 1	 2.021097e+00	 1146.jpg	 1262.jpg	 46	 53	 1	 b	 2	 1	 832.34	 0.31	 0.19	 3.354776e+00	 
MRI_faces_134	 1	 2	 02	 1	 2	 5.021160e+00	 2128.jpg	 1150.jpg	 44	 51	 0	 b	 2	 0	 976.27	 0.39	 0.23	 6.504619e+00	 
MRI_faces_134	 1	 2	 02	 1	 3	 8.021281e+00	 1017.jpg	 2153.jpg	 7	 17	 0	 b	 1	 0	 880.15	 0.81	 0.66	 9.404837e+00	 
MRI_faces_134	 1	 2	 02	 1	 4	 1.302134e+01	 1035.jpg	 2218.jpg	 14	 12	 1	 b	 1	 1	 929.10	 0.68	 0.70	 1.445486e+01	 
MRI_faces_134	 1	 2	 02	 1	 5	 1.802142e+01	 1262.jpg	 1204.jpg	 53	 54	 0	 b	 2	 0	 1298.02	 0.19	 0.18	 1.982163e+01	 
MRI_faces_134	 1	 2	 02	 1	 6	 2.502145e+01	 2045.jpg	 2164.jpg	 50	 48	 0	 b	 2	 0	 900.99	 0.27	 0.31	 2.642159e+01	 
MRI_faces_134	 1	 2	 02	 1	 7	 2.902153e+01	 1173.jpg	 2089.jpg	 13	 9	 0	 b	 1	 0	 999.92	 0.69	 0.77	 3.052166e+01	 
MRI_faces_134	 1	 2	 02	 1	 8	 3.202159e+01	 2045.jpg	 1146.jpg	 50	 46	 0	 b	 2	 0	 1255.85	 0.27	 0.31	 3.377183e+01	 
MRI_faces_134	 1	 2	 02	 1	 9	 3.902256e+01	 1035.jpg	 2010.jpg	 14	 10	 1	 y	 1	 0	 1308.88	 0.68	 0.76	 4.082272e+01	 
MRI_faces_134	 1	 2	 02	 1	 10	 4.302320e+01	 2128.jpg	 1255.jpg	 44	 49	 0	 b	 2	 0	 885.24	 0.39	 0.29	 4.440707e+01	 
MRI_faces_134	 1	 2	 02	 1	 11	 4.602602e+01	 1031.jpg	 2010.jpg	 11	 10	 1	 b	 1	 1	 999.42	 0.74	 0.76	 4.752422e+01	 
MRI_faces_134	 1	 2	 02	 1	 12	 5.002446e+01	 1173.jpg	 1031.jpg	 13	 11	 0	 y	 1	 1	 1273.97	 0.69	 0.74	 5.179157e+01	 
MRI_faces_134	 1	 2	 02	 1	 13	 5.402516e+01	 2240.jpg	 1204.jpg	 47	 54	 0	 b	 2	 0	 968.27	 0.31	 0.18	 5.549219e+01	 
MRI_faces_134	 1	 2	 02	 1	 14	 5.902602e+01	 2006.jpg	 1150.jpg	 52	 51	 0	 b	 2	 0	 1082.41	 0.22	 0.23	 6.060978e+01	 
MRI_faces_134	 1	 2	 02	 1	 15	 6.302666e+01	 1035.jpg	 1073.jpg	 14	 15	 1	 b	 1	 1	 939.80	 0.68	 0.68	 6.446045e+01	 
MRI_faces_134	 1	 2	 02	 1	 16	 6.702734e+01	 2218.jpg	 2089.jpg	 12	 9	 0	 y	 1	 1	 1084.09	 0.70	 0.77	 6.861107e+01	 
MRI_faces_134	 1	 2	 02	 1	 17	 7.002796e+01	 1080.jpg	 2041.jpg	 56	 6	 0	 y	 4	 1	 973.48	 0.14	 0.82	 7.149509e+01	 
MRI_faces_134	 1	 2	 02	 1	 18	 8.002228e+01	 1204.jpg	 2128.jpg	 54	 44	 1	 y	 2	 0	 1098.16	 0.18	 0.39	 8.162248e+01	 
MRI_faces_134	 1	 2	 02	 1	 19	 8.402230e+01	 2164.jpg	 2240.jpg	 48	 47	 1	 y	 2	 0	 856.14	 0.31	 0.31	 8.538081e+01	 
MRI_faces_134	 1	 2	 02	 1	 20	 8.702239e+01	 2218.jpg	 2153.jpg	 12	 17	 0	 y	 1	 1	 922.12	 0.70	 0.66	 8.844786e+01	 
MRI_faces_134	 1	 2	 02	 1	 21	 9.002244e+01	 2015.jpg	 2128.jpg	 43	 44	 1	 y	 2	 0	 878.03	 0.39	 0.39	 9.140601e+01	 
MRI_faces_134	 1	 2	 02	 1	 22	 9.402243e+01	 1031.jpg	 1073.jpg	 11	 15	 1	 b	 1	 1	 1155.00	 0.74	 0.68	 9.568247e+01	 
MRI_faces_134	 1	 2	 02	 1	 23	 1.000225e+02	 1226.jpg	 1073.jpg	 16	 15	 1	 y	 1	 0	 1145.96	 0.66	 0.68	 1.016727e+02	 
MRI_faces_134	 1	 2	 02	 1	 24	 1.030226e+02	 1173.jpg	 2153.jpg	 13	 17	 0	 b	 1	 0	 988.85	 0.69	 0.66	 1.045174e+02	 
MRI_faces_134	 1	 2	 02	 1	 25	 1.060226e+02	 1017.jpg	 1031.jpg	 7	 11	 0	 b	 1	 0	 825.84	 0.81	 0.74	 1.073512e+02	 
MRI_faces_134	 1	 2	 02	 1	 26	 1.100227e+02	 1226.jpg	 2218.jpg	 16	 12	 1	 y	 1	 0	 966.75	 0.66	 0.70	 1.114897e+02	 
MRI_faces_134	 1	 2	 02	 1	 27	 1.130227e+02	 1150.jpg	 2045.jpg	 51	 50	 1	 y	 2	 0	 930.78	 0.23	 0.27	 1.144562e+02	 
MRI_faces_134	 1	 2	 02	 1	 28	 1.160228e+02	 2089.jpg	 1073.jpg	 9	 15	 1	 y	 1	 0	 989.66	 0.77	 0.68	 1.175063e+02	 
MRI_faces_134	 1	 2	 02	 1	 29	 1.300229e+02	 2045.jpg	 1255.jpg	 50	 49	 0	 y	 2	 1	 972.54	 0.27	 0.29	 1.314899e+02	 
MRI_faces_134	 1	 2	 02	 1	 30	 1.400235e+02	 1226.jpg	 2248.jpg	 16	 18	 1	 b	 1	 1	 1014.94	 0.66	 0.63	 1.415405e+02	 
MRI_faces_134	 1	 2	 02	 1	 31	 1.460246e+02	 1173.jpg	 1035.jpg	 13	 14	 0	 y	 1	 1	 921.89	 0.69	 0.68	 1.474416e+02	 
MRI_faces_134	 1	 2	 02	 1	 32	 1.500272e+02	 1204.jpg	 1052.jpg	 54	 45	 1	 y	 2	 0	 1019.28	 0.18	 0.32	 1.515422e+02	 
MRI_faces_134	 1	 2	 02	 1	 33	 1.560272e+02	 2015.jpg	 2045.jpg	 43	 50	 1	 y	 2	 0	 885.22	 0.39	 0.27	 1.574099e+02	 
MRI_faces_134	 1	 2	 02	 1	 34	 1.600269e+02	 1146.jpg	 2006.jpg	 46	 52	 1	 b	 2	 1	 799.53	 0.31	 0.22	 1.613274e+02	 
MRI_faces_134	 1	 2	 02	 1	 35	 1.660280e+02	 1017.jpg	 2089.jpg	 7	 9	 0	 b	 1	 0	 736.43	 0.81	 0.77	 1.672617e+02	 
MRI_faces_134	 1	 2	 02	 1	 36	 1.780235e+02	 2045.jpg	 1204.jpg	 50	 54	 0	 y	 2	 1	 892.89	 0.27	 0.18	 1.794137e+02	 
MRI_faces_134	 1	 2	 02	 1	 37	 1.810236e+02	 1255.jpg	 2006.jpg	 49	 52	 1	 b	 2	 1	 888.84	 0.29	 0.22	 1.824142e+02	 
MRI_faces_134	 1	 2	 02	 1	 38	 1.880237e+02	 2039.jpg	 2110.jpg	 5	 55	 1	 b	 4	 1	 842.72	 0.84	 0.17	 1.893655e+02	 
