subjectID	scanner	order	block	run	trial	onsettime	ImageLeft	ImageRight	bidIndexLeft	bidIndexRight	IsleftGo	Response	PairType	Outcome	RT	bidLeft	bidRight	ixationTime	
MRI_faces_110	 1	 2	 02	 1	 1	 2.032564e+00	 1050.jpg	 1031.jpg	 12	 9	 0	 b	 1	 0	 960.80	 0.74	 0.75	 3.482930e+00	 
MRI_faces_110	 1	 2	 02	 1	 2	 5.033012e+00	 1052.jpg	 2240.jpg	 43	 44	 1	 y	 2	 0	 736.34	 0.37	 0.36	 6.266788e+00	 
MRI_faces_110	 1	 2	 02	 1	 3	 8.033595e+00	 1031.jpg	 2181.jpg	 9	 15	 1	 b	 1	 1	 696.76	 0.75	 0.72	 9.228903e+00	 
MRI_faces_110	 1	 2	 02	 1	 4	 1.302878e+01	 2128.jpg	 1226.jpg	 52	 49	 0	 y	 2	 1	 991.56	 0.28	 0.34	 1.451814e+01	 
MRI_faces_110	 1	 2	 02	 1	 5	 1.802893e+01	 1060.jpg	 1183.jpg	 13	 16	 0	 b	 1	 0	 1314.41	 0.73	 0.61	 1.984568e+01	 
MRI_faces_110	 1	 2	 02	 1	 6	 2.502906e+01	 1017.jpg	 2125.jpg	 11	 18	 1	 b	 1	 1	 886.29	 0.74	 0.61	 2.642038e+01	 
MRI_faces_110	 1	 2	 02	 1	 7	 2.902911e+01	 2063.jpg	 1035.jpg	 17	 10	 1	 y	 1	 0	 966.25	 0.61	 0.74	 3.049585e+01	 
MRI_faces_110	 1	 2	 02	 1	 8	 3.202908e+01	 1204.jpg	 2045.jpg	 50	 46	 0	 b	 2	 0	 918.27	 0.31	 0.36	 3.344606e+01	 
MRI_faces_110	 1	 2	 02	 1	 9	 3.902920e+01	 2240.jpg	 2045.jpg	 44	 46	 0	 b	 2	 0	 876.15	 0.36	 0.36	 4.040620e+01	 
MRI_faces_110	 1	 2	 02	 1	 10	 4.302932e+01	 2240.jpg	 1226.jpg	 44	 49	 0	 b	 2	 0	 841.03	 0.36	 0.34	 4.437354e+01	 
MRI_faces_110	 1	 2	 02	 1	 11	 4.602925e+01	 2181.jpg	 1183.jpg	 15	 16	 0	 y	 1	 1	 821.10	 0.72	 0.61	 4.734621e+01	 
MRI_faces_110	 1	 2	 02	 1	 12	 5.002936e+01	 1035.jpg	 2209.jpg	 10	 8	 0	 b	 1	 0	 1219.99	 0.74	 0.77	 5.174613e+01	 
MRI_faces_110	 1	 2	 02	 1	 13	 5.402942e+01	 2063.jpg	 2125.jpg	 17	 18	 1	 b	 1	 1	 1092.97	 0.61	 0.61	 5.562541e+01	 
MRI_faces_110	 1	 2	 02	 1	 14	 5.902945e+01	 2125.jpg	 2209.jpg	 18	 8	 0	 y	 1	 1	 851.90	 0.61	 0.77	 6.037978e+01	 
MRI_faces_110	 1	 2	 02	 1	 15	 6.302957e+01	 1204.jpg	 1226.jpg	 50	 49	 0	 y	 2	 1	 1131.77	 0.31	 0.34	 6.466280e+01	 
MRI_faces_110	 1	 2	 02	 1	 16	 6.702960e+01	 1052.jpg	 1173.jpg	 43	 47	 1	 y	 2	 0	 1109.75	 0.37	 0.36	 6.862986e+01	 
MRI_faces_110	 1	 2	 02	 1	 17	 7.002967e+01	 1183.jpg	 1035.jpg	 16	 10	 1	 y	 1	 0	 1163.68	 0.61	 0.74	 7.169650e+01	 
MRI_faces_110	 1	 2	 02	 1	 18	 8.002983e+01	 2209.jpg	 1145.jpg	 8	 7	 1	 b	 1	 1	 886.53	 0.77	 0.79	 8.141325e+01	 
MRI_faces_110	 1	 2	 02	 1	 19	 8.403026e+01	 1019.jpg	 2045.jpg	 45	 46	 0	 y	 2	 1	 1086.08	 0.36	 0.36	 8.561394e+01	 
MRI_faces_110	 1	 2	 02	 1	 20	 8.703080e+01	 1204.jpg	 2041.jpg	 50	 51	 0	 y	 2	 1	 983.54	 0.31	 0.31	 8.851447e+01	 
MRI_faces_110	 1	 2	 02	 1	 21	 9.003136e+01	 2063.jpg	 1060.jpg	 17	 13	 1	 b	 1	 1	 1305.99	 0.61	 0.73	 9.183169e+01	 
MRI_faces_110	 1	 2	 02	 1	 22	 9.403194e+01	 1146.jpg	 2128.jpg	 48	 52	 1	 b	 2	 1	 1097.42	 0.35	 0.28	 9.563021e+01	 
MRI_faces_110	 1	 2	 02	 1	 23	 1.000330e+02	 1035.jpg	 1031.jpg	 10	 9	 0	 b	 1	 0	 1134.39	 0.74	 0.75	 1.016666e+02	 
MRI_faces_110	 1	 2	 02	 1	 24	 1.030335e+02	 1226.jpg	 1019.jpg	 49	 45	 1	 b	 2	 1	 1204.88	 0.34	 0.36	 1.047339e+02	 
MRI_faces_110	 1	 2	 02	 1	 25	 1.060341e+02	 2041.jpg	 2128.jpg	 51	 52	 1	 b	 2	 1	 886.25	 0.31	 0.28	 1.074178e+02	 
MRI_faces_110	 1	 2	 02	 1	 26	 1.100303e+02	 2045.jpg	 2149.jpg	 46	 53	 1	 y	 2	 0	 1310.08	 0.36	 0.25	 1.118351e+02	 
MRI_faces_110	 1	 2	 02	 1	 27	 1.130302e+02	 1173.jpg	 2041.jpg	 47	 51	 0	 y	 2	 1	 1196.12	 0.36	 0.31	 1.147190e+02	 
MRI_faces_110	 1	 2	 02	 1	 28	 1.160303e+02	 1150.jpg	 2010.jpg	 55	 5	 0	 y	 4	 1	 933.07	 0.18	 0.81	 1.174639e+02	 
MRI_faces_110	 1	 2	 02	 1	 29	 1.300304e+02	 1031.jpg	 1060.jpg	 9	 13	 1	 y	 1	 0	 1048.93	 0.75	 0.73	 1.315807e+02	 
MRI_faces_110	 1	 2	 02	 1	 30	 1.400306e+02	 2153.jpg	 1173.jpg	 54	 47	 1	 y	 2	 0	 1221.70	 0.22	 0.36	 1.417475e+02	 
MRI_faces_110	 1	 2	 02	 1	 31	 1.460307e+02	 1017.jpg	 2181.jpg	 11	 15	 1	 b	 1	 1	 1015.69	 0.74	 0.72	 1.475474e+02	 
MRI_faces_110	 1	 2	 02	 1	 32	 1.500308e+02	 1052.jpg	 1204.jpg	 43	 50	 1	 b	 2	 1	 823.57	 0.37	 0.31	 1.513477e+02	 
MRI_faces_110	 1	 2	 02	 1	 33	 1.560308e+02	 1073.jpg	 2010.jpg	 56	 5	 0	 y	 4	 1	 941.57	 0.18	 0.81	 1.574644e+02	 
MRI_faces_110	 1	 2	 02	 1	 34	 1.600309e+02	 2125.jpg	 1183.jpg	 18	 16	 0	 b	 1	 0	 1173.51	 0.61	 0.61	 1.616976e+02	 
MRI_faces_110	 1	 2	 02	 1	 35	 1.660310e+02	 1145.jpg	 1031.jpg	 7	 9	 0	 y	 1	 1	 953.35	 0.79	 0.75	 1.674812e+02	 
MRI_faces_110	 1	 2	 02	 1	 36	 1.780311e+02	 2153.jpg	 1019.jpg	 54	 45	 1	 b	 2	 1	 919.22	 0.22	 0.36	 1.794479e+02	 
MRI_faces_110	 1	 2	 02	 1	 37	 1.810312e+02	 1146.jpg	 1204.jpg	 48	 50	 1	 b	 2	 1	 1034.12	 0.35	 0.31	 1.825646e+02	 
MRI_faces_110	 1	 2	 02	 1	 38	 1.880317e+02	 1050.jpg	 2063.jpg	 12	 17	 0	 y	 1	 1	 877.65	 0.74	 0.61	 1.893988e+02	 
