subjectID	scanner	order	block	run	trial	onsettime	ImageLeft	ImageRight	bidIndexLeft	bidIndexRight	IsleftGo	Response	PairType	Outcome	RT	bidLeft	bidRight	ixationTime	
MRI_faces_101	 1	 1	 04	 2	 1	 2.023324e+00	 2063.jpg	 2229.jpg	 11	 15	 0	 b	 1	 0	 1233.34	 0.74	 0.68	 3.756948e+00	 
MRI_faces_101	 1	 1	 04	 2	 2	 6.010984e+00	 2212.jpg	 2181.jpg	 8	 18	 0	 b	 1	 0	 887.67	 0.76	 0.65	 7.411129e+00	 
MRI_faces_101	 1	 1	 04	 2	 3	 1.301110e+01	 1146.jpg	 2024.jpg	 45	 49	 1	 b	 2	 1	 1029.56	 0.31	 0.25	 1.454469e+01	 
MRI_faces_101	 1	 1	 04	 2	 4	 1.601117e+01	 1130.jpg	 1027.jpg	 52	 43	 1	 b	 2	 1	 763.49	 0.22	 0.33	 1.727793e+01	 
MRI_faces_101	 1	 1	 04	 2	 5	 2.101111e+01	 2058.jpg	 2006.jpg	 55	 6	 0	 y	 4	 1	 942.55	 0.20	 0.85	 2.246139e+01	 
MRI_faces_101	 1	 1	 04	 2	 6	 3.101160e+01	 2043.jpg	 1027.jpg	 53	 43	 1	 b	 2	 1	 1193.06	 0.22	 0.33	 3.271215e+01	 
MRI_faces_101	 1	 1	 04	 2	 7	 3.401212e+01	 1204.jpg	 1052.jpg	 44	 54	 1	 b	 2	 1	 805.54	 0.32	 0.21	 3.532916e+01	 
MRI_faces_101	 1	 1	 04	 2	 8	 3.701269e+01	 1173.jpg	 1130.jpg	 51	 52	 0	 y	 2	 1	 885.01	 0.23	 0.22	 3.839635e+01	 
MRI_faces_101	 1	 1	 04	 2	 9	 4.601548e+01	 2209.jpg	 2110.jpg	 12	 14	 1	 b	 1	 1	 963.18	 0.73	 0.69	 4.748147e+01	 
MRI_faces_101	 1	 1	 04	 2	 10	 4.901480e+01	 2063.jpg	 2181.jpg	 11	 18	 0	 b	 1	 0	 883.87	 0.74	 0.65	 5.039842e+01	 
MRI_faces_101	 1	 1	 04	 2	 11	 5.901656e+01	 2089.jpg	 2212.jpg	 13	 8	 1	 b	 1	 1	 929.10	 0.72	 0.76	 6.045031e+01	 
MRI_faces_101	 1	 1	 04	 2	 12	 6.401737e+01	 1173.jpg	 1204.jpg	 51	 44	 0	 y	 2	 1	 736.30	 0.23	 0.32	 6.525105e+01	 
MRI_faces_101	 1	 1	 04	 2	 13	 6.901831e+01	 1031.jpg	 2089.jpg	 9	 13	 0	 y	 1	 1	 677.35	 0.75	 0.72	 7.019546e+01	 
MRI_faces_101	 1	 1	 04	 2	 14	 7.701970e+01	 1246.jpg	 1150.jpg	 48	 50	 0	 y	 2	 1	 789.97	 0.25	 0.25	 7.831199e+01	 
MRI_faces_101	 1	 1	 04	 2	 15	 8.402091e+01	 1031.jpg	 2229.jpg	 9	 15	 0	 y	 1	 1	 724.75	 0.75	 0.68	 8.524557e+01	 
MRI_faces_101	 1	 1	 04	 2	 16	 8.802161e+01	 1173.jpg	 1146.jpg	 51	 45	 0	 y	 2	 1	 718.06	 0.23	 0.31	 8.923860e+01	 
MRI_faces_101	 1	 1	 04	 2	 17	 9.102204e+01	 2240.jpg	 2110.jpg	 10	 14	 1	 b	 1	 1	 687.66	 0.75	 0.69	 9.220576e+01	 
MRI_faces_101	 1	 1	 04	 2	 18	 9.602302e+01	 1017.jpg	 1080.jpg	 16	 7	 0	 y	 1	 1	 908.66	 0.66	 0.76	 9.742912e+01	 
MRI_faces_101	 1	 1	 04	 2	 19	 9.902352e+01	 2181.jpg	 2110.jpg	 18	 14	 1	 b	 1	 1	 752.14	 0.65	 0.69	 1.002739e+02	 
MRI_faces_101	 1	 1	 04	 2	 20	 1.070123e+02	 1173.jpg	 1150.jpg	 51	 50	 0	 y	 2	 1	 662.38	 0.23	 0.25	 1.081792e+02	 
MRI_faces_101	 1	 1	 04	 2	 21	 1.130124e+02	 2209.jpg	 2041.jpg	 12	 17	 1	 b	 1	 1	 857.22	 0.73	 0.66	 1.143792e+02	 
MRI_faces_101	 1	 1	 04	 2	 22	 1.180124e+02	 2024.jpg	 1150.jpg	 49	 50	 0	 y	 2	 1	 846.25	 0.25	 0.25	 1.193627e+02	 
MRI_faces_101	 1	 1	 04	 2	 23	 1.230126e+02	 2043.jpg	 1052.jpg	 53	 54	 1	 y	 2	 0	 1101.09	 0.22	 0.21	 1.246128e+02	 
MRI_faces_101	 1	 1	 04	 2	 24	 1.260126e+02	 1017.jpg	 2209.jpg	 16	 12	 0	 y	 1	 1	 700.08	 0.66	 0.73	 1.272127e+02	 
MRI_faces_101	 1	 1	 04	 2	 25	 1.400159e+02	 2006.jpg	 2194.jpg	 6	 56	 1	 b	 4	 1	 832.80	 0.85	 0.16	 1.413476e+02	 
MRI_faces_101	 1	 1	 04	 2	 26	 1.430144e+02	 2063.jpg	 1080.jpg	 11	 7	 0	 b	 1	 0	 817.27	 0.74	 0.76	 1.443315e+02	 
MRI_faces_101	 1	 1	 04	 2	 27	 1.470151e+02	 1080.jpg	 2212.jpg	 7	 8	 1	 y	 1	 0	 929.58	 0.76	 0.76	 1.484489e+02	 
MRI_faces_101	 1	 1	 04	 2	 28	 1.510158e+02	 2089.jpg	 2063.jpg	 13	 11	 1	 b	 1	 1	 743.86	 0.72	 0.74	 1.522662e+02	 
MRI_faces_101	 1	 1	 04	 2	 29	 1.540163e+02	 2209.jpg	 2063.jpg	 12	 11	 1	 b	 1	 1	 929.32	 0.73	 0.74	 1.554502e+02	 
MRI_faces_101	 1	 1	 04	 2	 30	 1.570168e+02	 2024.jpg	 1130.jpg	 49	 52	 0	 y	 2	 1	 1048.86	 0.25	 0.22	 1.585673e+02	 
MRI_faces_101	 1	 1	 04	 2	 31	 1.630179e+02	 1146.jpg	 1027.jpg	 45	 43	 1	 b	 2	 1	 851.80	 0.31	 0.33	 1.643683e+02	 
MRI_faces_101	 1	 1	 04	 2	 32	 1.690190e+02	 2218.jpg	 2024.jpg	 47	 49	 1	 y	 2	 0	 895.69	 0.26	 0.25	 1.704194e+02	 
MRI_faces_101	 1	 1	 04	 2	 33	 1.720195e+02	 2212.jpg	 2209.jpg	 8	 12	 0	 b	 1	 0	 713.20	 0.76	 0.73	 1.732364e+02	 
MRI_faces_101	 1	 1	 04	 2	 34	 1.750200e+02	 1246.jpg	 1204.jpg	 48	 44	 0	 y	 2	 1	 773.66	 0.25	 0.32	 1.762968e+02	 
MRI_faces_101	 1	 1	 04	 2	 35	 1.790207e+02	 2010.jpg	 1146.jpg	 46	 45	 0	 y	 2	 1	 837.94	 0.28	 0.31	 1.803543e+02	 
MRI_faces_101	 1	 1	 04	 2	 36	 1.820212e+02	 1130.jpg	 1246.jpg	 52	 48	 1	 y	 2	 0	 771.46	 0.22	 0.25	 1.832884e+02	 
MRI_faces_101	 1	 1	 04	 2	 37	 1.850217e+02	 2229.jpg	 2041.jpg	 15	 17	 1	 b	 1	 1	 802.00	 0.68	 0.66	 1.863222e+02	 
MRI_faces_101	 1	 1	 04	 2	 38	 1.880223e+02	 1204.jpg	 1027.jpg	 44	 43	 1	 b	 2	 1	 896.42	 0.32	 0.33	 1.894135e+02	 
