subjectID	scanner	order	block	run	trial	onsettime	ImageLeft	ImageRight	bidIndexLeft	bidIndexRight	IsleftGo	Response	PairType	Outcome	RT	bidLeft	bidRight	ixationTime	
MRI_faces_101	 1	 1	 01	 1	 1	 2.030565e+00	 2058.jpg	 2006.jpg	 55	 6	 0	 y	 4	 1	 1097.05	 0.20	 0.85	 3.615775e+00	 
MRI_faces_101	 1	 1	 01	 1	 2	 9.030766e+00	 2181.jpg	 2063.jpg	 18	 11	 1	 b	 1	 1	 917.85	 0.65	 0.74	 1.044757e+01	 
MRI_faces_101	 1	 1	 01	 1	 3	 2.203090e+01	 2229.jpg	 2041.jpg	 15	 17	 1	 y	 1	 0	 1003.70	 0.68	 0.66	 2.353110e+01	 
MRI_faces_101	 1	 1	 01	 1	 4	 2.603096e+01	 1204.jpg	 1246.jpg	 44	 48	 1	 b	 2	 1	 1246.65	 0.32	 0.25	 2.777006e+01	 
MRI_faces_101	 1	 1	 01	 1	 5	 3.103102e+01	 2209.jpg	 2041.jpg	 12	 17	 1	 b	 1	 1	 852.59	 0.73	 0.66	 3.238131e+01	 
MRI_faces_101	 1	 1	 01	 1	 6	 3.403112e+01	 2209.jpg	 2063.jpg	 12	 11	 1	 b	 1	 1	 1197.49	 0.73	 0.74	 3.572144e+01	 
MRI_faces_101	 1	 1	 01	 1	 7	 3.903112e+01	 2209.jpg	 1017.jpg	 12	 16	 1	 b	 1	 1	 753.49	 0.73	 0.66	 4.028138e+01	 
MRI_faces_101	 1	 1	 01	 1	 8	 4.303115e+01	 1150.jpg	 1027.jpg	 50	 43	 1	 b	 2	 1	 973.47	 0.25	 0.33	 4.449803e+01	 
MRI_faces_101	 1	 1	 01	 1	 9	 5.203129e+01	 2043.jpg	 1027.jpg	 53	 43	 1	 b	 2	 1	 1172.32	 0.22	 0.33	 5.369828e+01	 
MRI_faces_101	 1	 1	 01	 1	 10	 5.703133e+01	 2229.jpg	 2212.jpg	 15	 8	 1	 b	 1	 1	 1072.28	 0.68	 0.76	 5.859820e+01	 
MRI_faces_101	 1	 1	 01	 1	 11	 6.103153e+01	 2041.jpg	 2089.jpg	 17	 13	 0	 y	 1	 1	 994.07	 0.66	 0.72	 6.251507e+01	 
MRI_faces_101	 1	 1	 01	 1	 12	 6.803153e+01	 2229.jpg	 2063.jpg	 15	 11	 1	 b	 1	 1	 1182.08	 0.68	 0.74	 6.971067e+01	 
MRI_faces_101	 1	 1	 01	 1	 13	 7.203165e+01	 2212.jpg	 2089.jpg	 8	 13	 0	 y	 1	 1	 1127.96	 0.76	 0.72	 7.364850e+01	 
MRI_faces_101	 1	 1	 01	 1	 14	 7.803172e+01	 2218.jpg	 2010.jpg	 47	 46	 1	 b	 2	 1	 1375.89	 0.26	 0.28	 7.989860e+01	 
MRI_faces_101	 1	 1	 01	 1	 15	 8.302944e+01	 1173.jpg	 1150.jpg	 51	 50	 0	 y	 2	 1	 1001.16	 0.23	 0.25	 8.453189e+01	 
MRI_faces_101	 1	 1	 01	 1	 16	 8.703019e+01	 2043.jpg	 1052.jpg	 53	 54	 1	 b	 2	 1	 940.42	 0.22	 0.21	 8.846527e+01	 
MRI_faces_101	 1	 1	 01	 1	 17	 9.003069e+01	 2010.jpg	 1150.jpg	 46	 50	 0	 y	 2	 1	 947.93	 0.28	 0.25	 9.146540e+01	 
MRI_faces_101	 1	 1	 01	 1	 18	 9.303116e+01	 2212.jpg	 2240.jpg	 8	 10	 0	 y	 1	 1	 864.45	 0.76	 0.75	 9.438209e+01	 
MRI_faces_101	 1	 1	 01	 1	 19	 9.701500e+01	 1246.jpg	 1146.jpg	 48	 45	 0	 y	 2	 1	 853.61	 0.25	 0.31	 9.838229e+01	 
MRI_faces_101	 1	 1	 01	 1	 20	 1.100192e+02	 2041.jpg	 1080.jpg	 17	 7	 0	 y	 1	 1	 1037.39	 0.66	 0.76	 1.115679e+02	 
MRI_faces_101	 1	 1	 01	 1	 21	 1.140196e+02	 1017.jpg	 1080.jpg	 16	 7	 0	 y	 1	 1	 857.08	 0.66	 0.76	 1.153852e+02	 
MRI_faces_101	 1	 1	 01	 1	 22	 1.170187e+02	 1017.jpg	 2089.jpg	 16	 13	 0	 y	 1	 1	 1036.93	 0.66	 0.72	 1.185658e+02	 
MRI_faces_101	 1	 1	 01	 1	 23	 1.220196e+02	 1052.jpg	 1150.jpg	 54	 50	 0	 y	 2	 1	 988.00	 0.21	 0.25	 1.235159e+02	 
MRI_faces_101	 1	 1	 01	 1	 24	 1.250201e+02	 2024.jpg	 2218.jpg	 49	 47	 0	 y	 2	 1	 846.53	 0.25	 0.26	 1.263704e+02	 
MRI_faces_101	 1	 1	 01	 1	 25	 1.290208e+02	 1027.jpg	 1204.jpg	 43	 44	 0	 y	 2	 1	 1026.81	 0.33	 0.32	 1.305546e+02	 
MRI_faces_101	 1	 1	 01	 1	 26	 1.350219e+02	 2212.jpg	 2181.jpg	 8	 18	 0	 y	 1	 1	 1064.74	 0.76	 0.65	 1.365889e+02	 
MRI_faces_101	 1	 1	 01	 1	 27	 1.380223e+02	 1146.jpg	 1027.jpg	 45	 43	 1	 b	 2	 1	 873.27	 0.31	 0.33	 1.393993e+02	 
MRI_faces_101	 1	 1	 01	 1	 28	 1.420230e+02	 1146.jpg	 1173.jpg	 45	 51	 1	 b	 2	 1	 1154.59	 0.31	 0.23	 1.436827e+02	 
MRI_faces_101	 1	 1	 01	 1	 29	 1.470239e+02	 2194.jpg	 2053.jpg	 56	 5	 0	 y	 4	 1	 1340.76	 0.16	 0.85	 1.488660e+02	 
MRI_faces_101	 1	 1	 01	 1	 30	 1.510246e+02	 2041.jpg	 2240.jpg	 17	 10	 0	 y	 1	 1	 891.97	 0.66	 0.75	 1.524161e+02	 
MRI_faces_101	 1	 1	 01	 1	 31	 1.630267e+02	 1130.jpg	 2024.jpg	 52	 49	 1	 y	 2	 0	 1108.96	 0.22	 0.25	 1.646329e+02	 
MRI_faces_101	 1	 1	 01	 1	 32	 1.690277e+02	 2043.jpg	 2024.jpg	 53	 49	 1	 b	 2	 1	 1478.93	 0.22	 0.25	 1.709998e+02	 
MRI_faces_101	 1	 1	 01	 1	 33	 1.720282e+02	 2181.jpg	 1017.jpg	 18	 16	 1	 b	 1	 1	 1297.42	 0.65	 0.66	 1.738288e+02	 
MRI_faces_101	 1	 1	 01	 1	 34	 1.760289e+02	 2218.jpg	 1027.jpg	 47	 43	 1	 y	 2	 0	 1088.69	 0.26	 0.33	 1.776165e+02	 
MRI_faces_101	 1	 1	 01	 1	 35	 1.790294e+02	 1017.jpg	 2229.jpg	 16	 15	 0	 y	 1	 1	 849.19	 0.66	 0.68	 1.803798e+02	 
MRI_faces_101	 1	 1	 01	 1	 36	 1.820300e+02	 1150.jpg	 1246.jpg	 50	 48	 1	 b	 2	 1	 957.60	 0.25	 0.25	 1.834832e+02	 
MRI_faces_101	 1	 1	 01	 1	 37	 1.850305e+02	 1173.jpg	 2043.jpg	 51	 53	 0	 y	 2	 1	 790.08	 0.23	 0.22	 1.863165e+02	 
MRI_faces_101	 1	 1	 01	 1	 38	 1.880310e+02	 1031.jpg	 2240.jpg	 9	 10	 0	 y	 1	 1	 698.59	 0.75	 0.75	 1.892166e+02	 
