subjectID	scanner	order	block	run	trial	onsettime	ImageLeft	ImageRight	bidIndexLeft	bidIndexRight	IsleftGo	Response	PairType	Outcome	RT	bidLeft	bidRight	ixationTime	
MRI_faces_114	 1	 2	 01	 1	 1	 2.015081e+00	 2153.jpg	 1192.jpg	 8	 15	 1	 b	 1	 1	 848.17	 0.78	 0.68	 3.366256e+00	 
MRI_faces_114	 1	 2	 01	 1	 2	 6.015107e+00	 1204.jpg	 1246.jpg	 50	 43	 0	 x	 2	 999	 999000.00	 0.29	 0.37	 8.015304e+00	 
MRI_faces_114	 1	 2	 01	 1	 3	 1.301532e+01	 2248.jpg	 2024.jpg	 5	 55	 1	 b	 4	 1	 1108.92	 0.82	 0.21	 1.463212e+01	 
MRI_faces_114	 1	 2	 01	 1	 4	 1.601529e+01	 1017.jpg	 2006.jpg	 17	 7	 1	 b	 1	 1	 1138.96	 0.66	 0.80	 1.764881e+01	 
MRI_faces_114	 1	 2	 01	 1	 5	 2.101519e+01	 1150.jpg	 1246.jpg	 53	 43	 0	 y	 2	 1	 1225.05	 0.26	 0.37	 2.273213e+01	 
MRI_faces_114	 1	 2	 01	 1	 6	 3.101537e+01	 1191.jpg	 1080.jpg	 45	 48	 0	 b	 2	 0	 1098.88	 0.35	 0.31	 3.261572e+01	 
MRI_faces_114	 1	 2	 01	 1	 7	 3.401575e+01	 1226.jpg	 2045.jpg	 44	 51	 0	 b	 2	 0	 1102.51	 0.36	 0.26	 3.561637e+01	 
MRI_faces_114	 1	 2	 01	 1	 8	 3.701633e+01	 1191.jpg	 1246.jpg	 45	 43	 0	 b	 2	 0	 1100.91	 0.35	 0.37	 3.861674e+01	 
MRI_faces_114	 1	 2	 01	 1	 9	 4.601863e+01	 2212.jpg	 2006.jpg	 11	 7	 1	 b	 1	 1	 1037.60	 0.74	 0.80	 4.755165e+01	 
MRI_faces_114	 1	 2	 01	 1	 10	 4.901846e+01	 1146.jpg	 2212.jpg	 13	 11	 0	 x	 1	 999	 999000.00	 0.73	 0.74	 5.101894e+01	 
MRI_faces_114	 1	 2	 01	 1	 11	 5.902033e+01	 2128.jpg	 2045.jpg	 52	 51	 0	 b	 2	 0	 973.92	 0.26	 0.26	 6.048732e+01	 
MRI_faces_114	 1	 2	 01	 1	 12	 6.402116e+01	 1017.jpg	 2053.jpg	 17	 12	 1	 b	 1	 1	 1048.11	 0.66	 0.73	 6.556613e+01	 
MRI_faces_114	 1	 2	 01	 1	 13	 6.902203e+01	 1192.jpg	 1019.jpg	 15	 9	 0	 b	 1	 0	 1022.24	 0.68	 0.76	 7.053910e+01	 
MRI_faces_114	 1	 2	 01	 1	 14	 7.701621e+01	 2043.jpg	 1191.jpg	 49	 45	 1	 b	 2	 1	 1032.04	 0.30	 0.35	 7.854975e+01	 
MRI_faces_114	 1	 2	 01	 1	 15	 8.401628e+01	 1226.jpg	 1246.jpg	 44	 43	 0	 b	 2	 0	 1005.96	 0.36	 0.37	 8.552504e+01	 
MRI_faces_114	 1	 2	 01	 1	 16	 8.801634e+01	 2248.jpg	 2194.jpg	 5	 56	 1	 b	 4	 1	 1013.93	 0.82	 0.20	 8.953321e+01	 
MRI_faces_114	 1	 2	 01	 1	 17	 9.101641e+01	 1183.jpg	 1226.jpg	 46	 44	 1	 y	 2	 0	 1035.82	 0.33	 0.36	 9.254988e+01	 
MRI_faces_114	 1	 2	 01	 1	 18	 9.601648e+01	 2112.jpg	 1246.jpg	 47	 43	 0	 y	 2	 1	 1386.78	 0.32	 0.37	 9.789999e+01	 
MRI_faces_114	 1	 2	 01	 1	 19	 9.901650e+01	 1216.jpg	 1146.jpg	 16	 13	 1	 b	 1	 1	 1075.75	 0.67	 0.73	 1.005943e+02	 
MRI_faces_114	 1	 2	 01	 1	 20	 1.070166e+02	 2053.jpg	 2153.jpg	 12	 8	 0	 y	 1	 1	 995.62	 0.73	 0.78	 1.085168e+02	 
MRI_faces_114	 1	 2	 01	 1	 21	 1.130168e+02	 1019.jpg	 2181.jpg	 9	 10	 1	 y	 1	 0	 1088.49	 0.76	 0.75	 1.146002e+02	 
MRI_faces_114	 1	 2	 01	 1	 22	 1.180168e+02	 1019.jpg	 1146.jpg	 9	 13	 1	 y	 1	 0	 1174.47	 0.76	 0.73	 1.196836e+02	 
MRI_faces_114	 1	 2	 01	 1	 23	 1.230169e+02	 1210.jpg	 2153.jpg	 18	 8	 0	 b	 1	 0	 861.38	 0.65	 0.78	 1.243836e+02	 
MRI_faces_114	 1	 2	 01	 1	 24	 1.260168e+02	 2089.jpg	 1210.jpg	 14	 18	 1	 y	 1	 0	 1261.44	 0.72	 0.65	 1.277836e+02	 
MRI_faces_114	 1	 2	 01	 1	 25	 1.400195e+02	 1183.jpg	 1150.jpg	 46	 53	 1	 b	 2	 1	 1271.72	 0.33	 0.26	 1.417848e+02	 
MRI_faces_114	 1	 2	 01	 1	 26	 1.430182e+02	 2212.jpg	 2181.jpg	 11	 10	 1	 b	 1	 1	 1259.08	 0.74	 0.75	 1.447687e+02	 
MRI_faces_114	 1	 2	 01	 1	 27	 1.470189e+02	 2053.jpg	 2212.jpg	 12	 11	 0	 x	 1	 999	 999000.00	 0.73	 0.74	 1.490195e+02	 
MRI_faces_114	 1	 2	 01	 1	 28	 1.510196e+02	 2128.jpg	 2043.jpg	 52	 49	 0	 y	 2	 1	 1108.67	 0.26	 0.30	 1.526200e+02	 
MRI_faces_114	 1	 2	 01	 1	 29	 1.540201e+02	 1204.jpg	 2043.jpg	 50	 49	 0	 y	 2	 1	 1121.14	 0.29	 0.30	 1.556373e+02	 
MRI_faces_114	 1	 2	 01	 1	 30	 1.570207e+02	 2089.jpg	 1192.jpg	 14	 15	 1	 b	 1	 1	 1060.54	 0.72	 0.68	 1.585710e+02	 
MRI_faces_114	 1	 2	 01	 1	 31	 1.630217e+02	 1080.jpg	 2112.jpg	 48	 47	 1	 y	 2	 0	 888.56	 0.31	 0.32	 1.644054e+02	 
MRI_faces_114	 1	 2	 01	 1	 32	 1.690174e+02	 2053.jpg	 2089.jpg	 12	 14	 0	 b	 1	 0	 976.86	 0.73	 0.72	 1.704898e+02	 
MRI_faces_114	 1	 2	 01	 1	 33	 1.720175e+02	 1019.jpg	 2053.jpg	 9	 12	 1	 y	 1	 0	 1135.75	 0.76	 0.73	 1.736571e+02	 
MRI_faces_114	 1	 2	 01	 1	 34	 1.750175e+02	 1080.jpg	 2128.jpg	 48	 52	 1	 y	 2	 0	 946.71	 0.31	 0.26	 1.764678e+02	 
MRI_faces_114	 1	 2	 01	 1	 35	 1.790176e+02	 1146.jpg	 1017.jpg	 13	 17	 0	 b	 1	 0	 971.64	 0.73	 0.66	 1.804916e+02	 
MRI_faces_114	 1	 2	 01	 1	 36	 1.820177e+02	 1183.jpg	 2112.jpg	 46	 47	 1	 y	 2	 0	 1288.54	 0.33	 0.32	 1.838085e+02	 
MRI_faces_114	 1	 2	 01	 1	 37	 1.850175e+02	 1204.jpg	 2240.jpg	 50	 54	 0	 b	 2	 0	 1191.78	 0.29	 0.25	 1.867094e+02	 
MRI_faces_114	 1	 2	 01	 1	 38	 1.880177e+02	 1204.jpg	 2045.jpg	 50	 51	 0	 x	 2	 999	 999000.00	 0.29	 0.26	 1.900178e+02	 
