subjectID	scanner	order	block	run	trial	onsettime	ImageLeft	ImageRight	bidIndexLeft	bidIndexRight	IsleftGo	Response	PairType	Outcome	RT	bidLeft	bidRight	ixationTime	
MRI_faces_144	 1	 2	 03	 2	 1	 2.029550e+00	 2128.jpg	 2053.jpg	 18	 16	 0	 y	 1	 1	 857.35	 0.65	 0.69	 3.380902e+00	 
MRI_faces_144	 1	 2	 03	 2	 2	 5.029894e+00	 2058.jpg	 2041.jpg	 15	 17	 0	 b	 1	 0	 740.99	 0.70	 0.67	 6.263870e+00	 
MRI_faces_144	 1	 2	 03	 2	 3	 8.030601e+00	 2053.jpg	 2058.jpg	 16	 15	 1	 y	 1	 0	 715.28	 0.69	 0.70	 9.244022e+00	 
MRI_faces_144	 1	 2	 03	 2	 4	 1.302729e+01	 1060.jpg	 1145.jpg	 49	 45	 1	 y	 2	 0	 993.60	 0.27	 0.32	 1.451515e+01	 
MRI_faces_144	 1	 2	 03	 2	 5	 1.802746e+01	 2024.jpg	 2153.jpg	 14	 10	 1	 y	 1	 0	 947.42	 0.73	 0.79	 1.946616e+01	 
MRI_faces_144	 1	 2	 03	 2	 6	 2.502758e+01	 2125.jpg	 2153.jpg	 11	 10	 1	 y	 1	 0	 877.33	 0.77	 0.79	 2.640065e+01	 
MRI_faces_144	 1	 2	 03	 2	 7	 2.902755e+01	 1204.jpg	 1019.jpg	 44	 43	 0	 y	 2	 1	 910.36	 0.34	 0.35	 3.043472e+01	 
MRI_faces_144	 1	 2	 03	 2	 8	 3.202756e+01	 1013.jpg	 2015.jpg	 55	 5	 0	 y	 4	 1	 866.34	 0.16	 0.86	 3.339441e+01	 
MRI_faces_144	 1	 2	 03	 2	 9	 3.902768e+01	 1183.jpg	 1127.jpg	 52	 54	 0	 b	 2	 0	 906.21	 0.23	 0.17	 4.043648e+01	 
MRI_faces_144	 1	 2	 03	 2	 10	 4.302779e+01	 1035.jpg	 1146.jpg	 46	 53	 1	 b	 2	 1	 825.11	 0.31	 0.19	 4.435373e+01	 
MRI_faces_144	 1	 2	 03	 2	 11	 4.602786e+01	 2006.jpg	 2194.jpg	 8	 7	 1	 b	 1	 1	 837.04	 0.80	 0.81	 4.736134e+01	 
MRI_faces_144	 1	 2	 03	 2	 12	 5.002790e+01	 2045.jpg	 2006.jpg	 13	 8	 0	 y	 1	 1	 1044.00	 0.73	 0.80	 5.157177e+01	 
MRI_faces_144	 1	 2	 03	 2	 13	 5.402789e+01	 1183.jpg	 1114.jpg	 52	 51	 0	 y	 2	 1	 788.01	 0.23	 0.23	 5.531142e+01	 
MRI_faces_144	 1	 2	 03	 2	 14	 5.902798e+01	 2006.jpg	 2063.jpg	 8	 12	 1	 b	 1	 1	 760.90	 0.80	 0.77	 6.028992e+01	 
MRI_faces_144	 1	 2	 03	 2	 15	 6.302807e+01	 1146.jpg	 1114.jpg	 53	 51	 0	 y	 2	 1	 720.83	 0.19	 0.23	 6.424486e+01	 
MRI_faces_144	 1	 2	 03	 2	 16	 6.702811e+01	 1191.jpg	 1150.jpg	 50	 48	 0	 y	 2	 1	 768.78	 0.25	 0.28	 6.829489e+01	 
MRI_faces_144	 1	 2	 03	 2	 17	 7.002815e+01	 2006.jpg	 2128.jpg	 8	 18	 1	 b	 1	 1	 716.78	 0.80	 0.65	 7.124497e+01	 
MRI_faces_144	 1	 2	 03	 2	 18	 8.002836e+01	 2125.jpg	 2058.jpg	 11	 15	 1	 b	 1	 1	 745.54	 0.77	 0.70	 8.126174e+01	 
MRI_faces_144	 1	 2	 03	 2	 19	 8.402838e+01	 1204.jpg	 1114.jpg	 44	 51	 0	 y	 2	 1	 691.52	 0.34	 0.23	 8.521189e+01	 
MRI_faces_144	 1	 2	 03	 2	 20	 8.702835e+01	 1019.jpg	 1146.jpg	 43	 53	 1	 b	 2	 1	 762.54	 0.35	 0.19	 8.827864e+01	 
MRI_faces_144	 1	 2	 03	 2	 21	 9.002853e+01	 2212.jpg	 1073.jpg	 6	 56	 1	 b	 4	 1	 842.38	 0.81	 0.15	 9.136194e+01	 
MRI_faces_144	 1	 2	 03	 2	 22	 9.402899e+01	 2058.jpg	 2006.jpg	 15	 8	 0	 y	 1	 1	 678.92	 0.70	 0.80	 9.519594e+01	 
MRI_faces_144	 1	 2	 03	 2	 23	 1.000300e+02	 1191.jpg	 1060.jpg	 50	 49	 0	 b	 2	 0	 742.86	 0.25	 0.27	 1.012638e+02	 
MRI_faces_144	 1	 2	 03	 2	 24	 1.030286e+02	 1150.jpg	 1183.jpg	 48	 52	 1	 y	 2	 0	 756.33	 0.28	 0.23	 1.042809e+02	 
MRI_faces_144	 1	 2	 03	 2	 25	 1.060286e+02	 1146.jpg	 1060.jpg	 53	 49	 0	 b	 2	 0	 666.28	 0.19	 0.27	 1.071955e+02	 
MRI_faces_144	 1	 2	 03	 2	 26	 1.100288e+02	 1150.jpg	 1145.jpg	 48	 45	 1	 y	 2	 0	 690.13	 0.28	 0.32	 1.112155e+02	 
MRI_faces_144	 1	 2	 03	 2	 27	 1.130288e+02	 2153.jpg	 2041.jpg	 10	 17	 0	 b	 1	 0	 683.09	 0.79	 0.67	 1.142122e+02	 
MRI_faces_144	 1	 2	 03	 2	 28	 1.160288e+02	 2229.jpg	 2194.jpg	 9	 7	 1	 b	 1	 1	 814.08	 0.80	 0.81	 1.173332e+02	 
MRI_faces_144	 1	 2	 03	 2	 29	 1.300289e+02	 1114.jpg	 1191.jpg	 51	 50	 1	 b	 2	 1	 810.98	 0.23	 0.25	 1.313356e+02	 
MRI_faces_144	 1	 2	 03	 2	 30	 1.400291e+02	 2024.jpg	 2058.jpg	 14	 15	 1	 y	 1	 0	 830.75	 0.73	 0.70	 1.413540e+02	 
MRI_faces_144	 1	 2	 03	 2	 31	 1.460292e+02	 2063.jpg	 2024.jpg	 12	 14	 0	 b	 1	 0	 643.70	 0.77	 0.73	 1.471717e+02	 
MRI_faces_144	 1	 2	 03	 2	 32	 1.500292e+02	 1127.jpg	 1216.jpg	 54	 47	 1	 y	 2	 0	 786.74	 0.17	 0.30	 1.513127e+02	 
MRI_faces_144	 1	 2	 03	 2	 33	 1.560293e+02	 1145.jpg	 1019.jpg	 45	 43	 0	 y	 2	 1	 667.60	 0.32	 0.35	 1.571961e+02	 
MRI_faces_144	 1	 2	 03	 2	 34	 1.600293e+02	 2128.jpg	 2024.jpg	 18	 14	 0	 y	 1	 1	 925.57	 0.65	 0.73	 1.614462e+02	 
MRI_faces_144	 1	 2	 03	 2	 35	 1.660293e+02	 2063.jpg	 2229.jpg	 12	 9	 0	 b	 1	 0	 1052.64	 0.77	 0.80	 1.675796e+02	 
MRI_faces_144	 1	 2	 03	 2	 36	 1.780296e+02	 1191.jpg	 1127.jpg	 50	 54	 0	 b	 2	 0	 824.25	 0.25	 0.17	 1.793464e+02	 
MRI_faces_144	 1	 2	 03	 2	 37	 1.810296e+02	 2041.jpg	 2045.jpg	 17	 13	 1	 y	 1	 0	 741.29	 0.67	 0.73	 1.822631e+02	 
MRI_faces_144	 1	 2	 03	 2	 38	 1.880295e+02	 1127.jpg	 1204.jpg	 54	 44	 1	 y	 2	 0	 766.40	 0.17	 0.34	 1.892957e+02	 
