subjectID	scanner	order	block	run	trial	onsettime	ImageLeft	ImageRight	bidIndexLeft	bidIndexRight	IsleftGo	Response	PairType	Outcome	RT	bidLeft	bidRight	ixationTime	
MRI_faces_121	 1	 1	 04	 1	 1	 2.031910e+00	 1191.jpg	 1255.jpg	 9	 13	 0	 y	 1	 1	 691.17	 0.77	 0.69	 3.215334e+00	 
MRI_faces_121	 1	 1	 04	 1	 2	 6.031882e+00	 1031.jpg	 2110.jpg	 7	 11	 1	 b	 1	 1	 695.18	 0.78	 0.71	 7.230600e+00	 
MRI_faces_121	 1	 1	 04	 1	 3	 9.031948e+00	 2110.jpg	 2043.jpg	 11	 15	 0	 b	 1	 0	 962.13	 0.71	 0.66	 1.049881e+01	 
MRI_faces_121	 1	 1	 04	 1	 4	 1.403205e+01	 1183.jpg	 1246.jpg	 45	 43	 1	 y	 2	 0	 652.03	 0.35	 0.38	 1.518229e+01	 
MRI_faces_121	 1	 1	 04	 1	 5	 1.703213e+01	 2045.jpg	 2155.jpg	 46	 47	 0	 y	 2	 1	 662.96	 0.34	 0.34	 1.819922e+01	 
MRI_faces_121	 1	 1	 04	 1	 6	 2.003264e+01	 1204.jpg	 1035.jpg	 56	 5	 0	 b	 4	 0	 805.43	 0.25	 0.86	 2.133313e+01	 
MRI_faces_121	 1	 1	 04	 1	 7	 3.403514e+01	 2112.jpg	 2164.jpg	 50	 54	 1	 y	 2	 0	 755.94	 0.30	 0.29	 3.528562e+01	 
MRI_faces_121	 1	 1	 04	 1	 8	 3.803587e+01	 1226.jpg	 2041.jpg	 44	 51	 1	 b	 2	 1	 735.21	 0.35	 0.30	 3.926956e+01	 
MRI_faces_121	 1	 1	 04	 1	 9	 4.203649e+01	 2164.jpg	 1183.jpg	 54	 45	 0	 y	 2	 1	 562.61	 0.29	 0.35	 4.309936e+01	 
MRI_faces_121	 1	 1	 04	 1	 10	 4.503249e+01	 2155.jpg	 2164.jpg	 47	 54	 1	 y	 2	 0	 576.59	 0.34	 0.29	 4.610417e+01	 
MRI_faces_121	 1	 1	 04	 1	 11	 4.803254e+01	 2089.jpg	 2194.jpg	 53	 49	 1	 b	 2	 1	 808.54	 0.30	 0.32	 4.933808e+01	 
MRI_faces_121	 1	 1	 04	 1	 12	 5.303259e+01	 1146.jpg	 1255.jpg	 14	 13	 0	 y	 1	 1	 641.49	 0.68	 0.69	 5.417227e+01	 
MRI_faces_121	 1	 1	 04	 1	 13	 5.603259e+01	 2089.jpg	 2015.jpg	 53	 48	 1	 y	 2	 0	 752.50	 0.30	 0.33	 5.728272e+01	 
MRI_faces_121	 1	 1	 04	 1	 14	 6.603279e+01	 1191.jpg	 2229.jpg	 9	 12	 0	 b	 1	 0	 751.29	 0.77	 0.69	 6.728304e+01	 
MRI_faces_121	 1	 1	 04	 1	 15	 7.203293e+01	 1145.jpg	 2181.jpg	 10	 8	 1	 b	 1	 1	 692.15	 0.72	 0.77	 7.322562e+01	 
MRI_faces_121	 1	 1	 04	 1	 16	 7.503284e+01	 2112.jpg	 2194.jpg	 50	 49	 1	 y	 2	 0	 626.24	 0.30	 0.32	 7.615941e+01	 
MRI_faces_121	 1	 1	 04	 1	 17	 7.903298e+01	 1145.jpg	 2110.jpg	 10	 11	 1	 b	 1	 1	 631.10	 0.72	 0.71	 8.016641e+01	 
MRI_faces_121	 1	 1	 04	 1	 18	 8.403303e+01	 2110.jpg	 1255.jpg	 11	 13	 0	 y	 1	 1	 535.05	 0.71	 0.69	 8.506658e+01	 
MRI_faces_121	 1	 1	 04	 1	 19	 9.103306e+01	 1145.jpg	 1073.jpg	 10	 17	 1	 y	 1	 0	 709.02	 0.72	 0.61	 9.224548e+01	 
MRI_faces_121	 1	 1	 04	 1	 20	 9.603326e+01	 2194.jpg	 1226.jpg	 49	 44	 0	 y	 2	 1	 646.83	 0.32	 0.35	 9.718336e+01	 
MRI_faces_121	 1	 1	 04	 1	 21	 9.903322e+01	 1246.jpg	 2089.jpg	 43	 53	 0	 b	 2	 0	 685.87	 0.38	 0.30	 1.002168e+02	 
MRI_faces_121	 1	 1	 04	 1	 22	 1.050333e+02	 2181.jpg	 1031.jpg	 8	 7	 0	 y	 1	 1	 520.75	 0.77	 0.78	 1.060502e+02	 
MRI_faces_121	 1	 1	 04	 1	 23	 1.090334e+02	 2110.jpg	 1262.jpg	 11	 18	 0	 y	 1	 1	 643.71	 0.71	 0.60	 1.101669e+02	 
MRI_faces_121	 1	 1	 04	 1	 24	 1.210337e+02	 1150.jpg	 2153.jpg	 55	 6	 0	 b	 4	 0	 712.36	 0.29	 0.82	 1.222342e+02	 
MRI_faces_121	 1	 1	 04	 1	 25	 1.240342e+02	 2112.jpg	 2045.jpg	 50	 46	 1	 y	 2	 0	 587.89	 0.30	 0.34	 1.251178e+02	 
MRI_faces_121	 1	 1	 04	 1	 26	 1.270347e+02	 1031.jpg	 1073.jpg	 7	 17	 1	 b	 1	 1	 849.43	 0.78	 0.61	 1.283852e+02	 
MRI_faces_121	 1	 1	 04	 1	 27	 1.310353e+02	 1226.jpg	 2164.jpg	 44	 54	 1	 y	 2	 0	 605.74	 0.35	 0.29	 1.321357e+02	 
MRI_faces_121	 1	 1	 04	 1	 28	 1.370364e+02	 1262.jpg	 2181.jpg	 18	 8	 1	 b	 1	 1	 677.65	 0.60	 0.77	 1.382036e+02	 
MRI_faces_121	 1	 1	 04	 1	 29	 1.400370e+02	 2112.jpg	 2041.jpg	 50	 51	 1	 y	 2	 0	 558.09	 0.30	 0.30	 1.410874e+02	 
MRI_faces_121	 1	 1	 04	 1	 30	 1.490338e+02	 2112.jpg	 1246.jpg	 50	 43	 1	 y	 2	 0	 530.28	 0.30	 0.38	 1.500555e+02	 
MRI_faces_121	 1	 1	 04	 1	 31	 1.530339e+02	 1073.jpg	 1255.jpg	 17	 13	 0	 b	 1	 0	 616.18	 0.61	 0.69	 1.541509e+02	 
MRI_faces_121	 1	 1	 04	 1	 32	 1.570340e+02	 2041.jpg	 2058.jpg	 51	 52	 0	 y	 2	 1	 533.06	 0.30	 0.30	 1.580675e+02	 
MRI_faces_121	 1	 1	 04	 1	 33	 1.600341e+02	 1052.jpg	 2229.jpg	 16	 12	 0	 y	 1	 1	 552.98	 0.63	 0.69	 1.610841e+02	 
MRI_faces_121	 1	 1	 04	 1	 34	 1.630341e+02	 2045.jpg	 1226.jpg	 46	 44	 0	 y	 2	 1	 541.04	 0.34	 0.35	 1.640746e+02	 
MRI_faces_121	 1	 1	 04	 1	 35	 1.730342e+02	 1183.jpg	 2015.jpg	 45	 48	 1	 y	 2	 0	 535.92	 0.35	 0.33	 1.740677e+02	 
MRI_faces_121	 1	 1	 04	 1	 36	 1.770342e+02	 1191.jpg	 1262.jpg	 9	 18	 0	 y	 1	 1	 531.88	 0.77	 0.60	 1.780676e+02	 
MRI_faces_121	 1	 1	 04	 1	 37	 1.850343e+02	 1262.jpg	 1146.jpg	 18	 14	 1	 b	 1	 1	 613.78	 0.60	 0.68	 1.861452e+02	 
MRI_faces_121	 1	 1	 04	 1	 38	 1.880343e+02	 1146.jpg	 1031.jpg	 14	 7	 0	 y	 1	 1	 515.76	 0.68	 0.78	 1.890513e+02	 
