subjectID	scanner	order	block	run	trial	onsettime	ImageLeft	ImageRight	bidIndexLeft	bidIndexRight	IsleftGo	Response	PairType	Outcome	RT	bidLeft	bidRight	ixationTime	
MRI_faces_102	 1	 2	 04	 2	 1	 2.021751e+00	 2153.jpg	 2010.jpg	 12	 8	 0	 y	 1	 1	 997.75	 0.72	 0.77	 3.514797e+00	 
MRI_faces_102	 1	 2	 04	 2	 2	 9.014536e+00	 1216.jpg	 2153.jpg	 16	 12	 1	 y	 1	 0	 689.98	 0.68	 0.72	 1.020554e+01	 
MRI_faces_102	 1	 2	 04	 2	 3	 2.202237e+01	 1052.jpg	 1130.jpg	 49	 44	 1	 y	 2	 0	 1089.11	 0.28	 0.35	 2.360579e+01	 
MRI_faces_102	 1	 2	 04	 2	 4	 2.602242e+01	 2248.jpg	 1031.jpg	 13	 17	 0	 b	 1	 0	 687.08	 0.72	 0.67	 2.720577e+01	 
MRI_faces_102	 1	 2	 04	 2	 5	 3.101848e+01	 1192.jpg	 1019.jpg	 47	 43	 0	 y	 2	 1	 704.02	 0.29	 0.35	 3.222255e+01	 
MRI_faces_102	 1	 2	 04	 2	 6	 3.401901e+01	 1192.jpg	 1027.jpg	 47	 48	 0	 y	 2	 1	 816.49	 0.29	 0.28	 3.533592e+01	 
MRI_faces_102	 1	 2	 04	 2	 7	 3.901986e+01	 2015.jpg	 2248.jpg	 14	 13	 1	 b	 1	 1	 872.64	 0.70	 0.72	 4.038931e+01	 
MRI_faces_102	 1	 2	 04	 2	 8	 4.302052e+01	 1130.jpg	 2149.jpg	 44	 46	 0	 y	 2	 1	 755.98	 0.35	 0.29	 4.427271e+01	 
MRI_faces_102	 1	 2	 04	 2	 9	 5.202268e+01	 1150.jpg	 1127.jpg	 53	 51	 0	 y	 2	 1	 1088.82	 0.22	 0.24	 5.360617e+01	 
MRI_faces_102	 1	 2	 04	 2	 10	 5.700614e+01	 1173.jpg	 1130.jpg	 54	 44	 1	 y	 2	 0	 856.36	 0.21	 0.35	 5.837329e+01	 
MRI_faces_102	 1	 2	 04	 2	 11	 6.100705e+01	 1114.jpg	 2110.jpg	 6	 56	 1	 b	 4	 1	 897.44	 0.82	 0.16	 6.240732e+01	 
MRI_faces_102	 1	 2	 04	 2	 12	 6.800842e+01	 1127.jpg	 1013.jpg	 51	 45	 1	 y	 2	 0	 964.08	 0.24	 0.29	 6.947525e+01	 
MRI_faces_102	 1	 2	 04	 2	 13	 7.202299e+01	 1052.jpg	 1192.jpg	 49	 47	 1	 y	 2	 0	 905.52	 0.28	 0.29	 7.342603e+01	 
MRI_faces_102	 1	 2	 04	 2	 14	 7.800993e+01	 2118.jpg	 2110.jpg	 5	 56	 1	 b	 4	 1	 852.57	 0.85	 0.16	 7.937333e+01	 
MRI_faces_102	 1	 2	 04	 2	 15	 8.301084e+01	 1019.jpg	 1060.jpg	 43	 52	 1	 y	 2	 0	 1017.64	 0.35	 0.24	 8.452784e+01	 
MRI_faces_102	 1	 2	 04	 2	 16	 8.701158e+01	 1191.jpg	 2010.jpg	 18	 8	 0	 y	 1	 1	 958.93	 0.66	 0.77	 8.847863e+01	 
MRI_faces_102	 1	 2	 04	 2	 17	 9.001208e+01	 2248.jpg	 2010.jpg	 13	 8	 0	 y	 1	 1	 925.44	 0.72	 0.77	 9.144587e+01	 
MRI_faces_102	 1	 2	 04	 2	 18	 9.301258e+01	 1060.jpg	 1027.jpg	 52	 48	 0	 b	 2	 0	 1134.92	 0.24	 0.28	 9.465681e+01	 
MRI_faces_102	 1	 2	 04	 2	 19	 9.701322e+01	 1216.jpg	 2212.jpg	 16	 10	 1	 y	 1	 0	 598.30	 0.68	 0.75	 9.811362e+01	 
MRI_faces_102	 1	 2	 04	 2	 20	 1.100236e+02	 2015.jpg	 2212.jpg	 14	 10	 1	 b	 1	 1	 1133.94	 0.70	 0.75	 1.116493e+02	 
MRI_faces_102	 1	 2	 04	 2	 21	 1.140162e+02	 1035.jpg	 2015.jpg	 7	 14	 0	 y	 1	 1	 790.30	 0.79	 0.70	 1.153071e+02	 
MRI_faces_102	 1	 2	 04	 2	 22	 1.170167e+02	 2153.jpg	 1262.jpg	 12	 11	 0	 b	 1	 0	 954.75	 0.72	 0.73	 1.184739e+02	 
MRI_faces_102	 1	 2	 04	 2	 23	 1.220237e+02	 2212.jpg	 1031.jpg	 10	 17	 0	 b	 1	 0	 865.85	 0.75	 0.67	 1.233847e+02	 
MRI_faces_102	 1	 2	 04	 2	 24	 1.250181e+02	 1150.jpg	 1052.jpg	 53	 49	 0	 y	 2	 1	 924.37	 0.22	 0.28	 1.264405e+02	 
MRI_faces_102	 1	 2	 04	 2	 25	 1.290189e+02	 1216.jpg	 2089.jpg	 16	 15	 1	 y	 1	 0	 831.63	 0.68	 0.68	 1.303526e+02	 
MRI_faces_102	 1	 2	 04	 2	 26	 1.350199e+02	 2149.jpg	 1150.jpg	 46	 53	 1	 b	 2	 1	 895.68	 0.29	 0.22	 1.364073e+02	 
MRI_faces_102	 1	 2	 04	 2	 27	 1.380239e+02	 1052.jpg	 1060.jpg	 49	 52	 1	 y	 2	 0	 879.58	 0.28	 0.24	 1.393906e+02	 
MRI_faces_102	 1	 2	 04	 2	 28	 1.420211e+02	 1060.jpg	 1173.jpg	 52	 54	 0	 b	 2	 0	 1026.43	 0.24	 0.21	 1.435407e+02	 
MRI_faces_102	 1	 2	 04	 2	 29	 1.470074e+02	 1013.jpg	 1027.jpg	 45	 48	 0	 y	 2	 1	 927.10	 0.29	 0.28	 1.484408e+02	 
MRI_faces_102	 1	 2	 04	 2	 30	 1.510074e+02	 2181.jpg	 2248.jpg	 9	 13	 1	 y	 1	 0	 907.17	 0.76	 0.72	 1.524242e+02	 
MRI_faces_102	 1	 2	 04	 2	 31	 1.630081e+02	 1191.jpg	 1262.jpg	 18	 11	 0	 y	 1	 1	 976.40	 0.66	 0.73	 1.644918e+02	 
MRI_faces_102	 1	 2	 04	 2	 32	 1.690093e+02	 1191.jpg	 2015.jpg	 18	 14	 0	 y	 1	 1	 729.26	 0.66	 0.70	 1.702429e+02	 
MRI_faces_102	 1	 2	 04	 2	 33	 1.720122e+02	 1262.jpg	 2248.jpg	 11	 13	 1	 y	 1	 0	 1039.30	 0.73	 0.72	 1.735600e+02	 
MRI_faces_102	 1	 2	 04	 2	 34	 1.760118e+02	 1019.jpg	 2045.jpg	 43	 50	 1	 y	 2	 0	 771.66	 0.35	 0.24	 1.772912e+02	 
MRI_faces_102	 1	 2	 04	 2	 35	 1.790109e+02	 2181.jpg	 2212.jpg	 9	 10	 1	 b	 1	 1	 1121.65	 0.76	 0.75	 1.806413e+02	 
MRI_faces_102	 1	 2	 04	 2	 36	 1.820128e+02	 1052.jpg	 2045.jpg	 49	 50	 1	 y	 2	 0	 1268.67	 0.28	 0.24	 1.837785e+02	 
MRI_faces_102	 1	 2	 04	 2	 37	 1.850119e+02	 1035.jpg	 2181.jpg	 7	 9	 0	 y	 1	 1	 902.58	 0.79	 0.76	 1.864123e+02	 
MRI_faces_102	 1	 2	 04	 2	 38	 1.880127e+02	 1130.jpg	 1127.jpg	 44	 51	 0	 y	 2	 1	 909.75	 0.35	 0.24	 1.894295e+02	 
