trial,time,stimulus,RT,KeyPressed,Is correct
1,,Fixation,,,
2,,Fixation,,,
3,,Fixation,,,
4,,Fixation,,,
5,,Fixation,,,
6,,Fixation,,,
7,,Fixation,,,
8,,Fixation,,,
9,,Fixation,,,
10,,Fixation,,,
11,,Fixation,,,
12,,Fixation,,,
13,,Fixation,,,
14,,Fixation,,,
15,,Fixation,,,
16,,Fixation,,,
1,0.0045221,MVI_0920_new.avi,none,none,TRUE
2,1.0112,MVI_0917_new.avi,none,none,TRUE
3,2.0019,MVI_0935_new.avi,none,none,TRUE
4,3.0017,MVI_0932_new.avi,none,none,TRUE
5,4.0021,MVI_0921_new.avi,none,none,TRUE
6,5.0027,MVI_0936_new.avi,none,none,TRUE
7,6.0031,MVI_0915_new.avi,none,none,TRUE
8,7.0041,MVI_0934_new.avi,none,none,TRUE
9,8.0026,MVI_0929_new.avi,none,none,TRUE
10,9.0027,MVI_0922_new.avi,none,none,TRUE
11,10.0027,MVI_0922_new.avi,0.86292,b,TRUE
12,11.0027,MVI_0930_new.avi,none,none,TRUE
13,12.0027,MVI_0919_new.avi,none,none,TRUE
14,13.0027,MVI_0937_new.avi,none,none,TRUE
15,14.0027,MVI_0937_new.avi,0.097378,b,TRUE
16,15.0027,MVI_0931_new.avi,none,none,TRUE
1,0.0013645,Globe.avi,none,none,TRUE
2,1.0339,Flag.avi,none,none,TRUE
3,2.0014,Fan.avi,none,none,TRUE
4,3.0015,Fan.avi,0.77828,b,TRUE
5,4.0013,Water.avi,none,none,TRUE
6,5.0014,Opener.avi,none,none,TRUE
7,6.0014,Opener.avi,0.61681,b,TRUE
8,7.0013,Toilet.avi,none,none,TRUE
9,8.0009,StopWatch.avi,none,none,TRUE
10,9.0015,Tire.avi,none,none,TRUE
11,10.0014,Leaves.avi,none,none,TRUE
12,11.0016,Candle.avi,none,none,TRUE
13,12.0015,Discs.avi,none,none,TRUE
14,13.0007,RecPlayer.avi,none,none,TRUE
15,14.0015,Coffee.avi,none,none,TRUE
16,15.0015,Tennis.avi,none,none,TRUE