subjectID	scanner	order	block	run	trial	onsettime	ImageLeft	ImageRight	bidIndexLeft	bidIndexRight	IsleftGo	Response	PairType	Outcome	RT	bidLeft	bidRight	ixationTime	
MRI_faces_122	 1	 2	 02	 2	 1	 2.022455e+00	 1035.jpg	 2015.jpg	 15	 14	 0	 y	 1	 1	 668.79	 0.67	 0.67	 3.189321e+00	 
MRI_faces_122	 1	 2	 02	 2	 2	 6.022425e+00	 1035.jpg	 1027.jpg	 15	 8	 0	 y	 1	 1	 793.83	 0.67	 0.74	 7.316283e+00	 
MRI_faces_122	 1	 2	 02	 2	 3	 9.022435e+00	 1027.jpg	 2053.jpg	 8	 10	 1	 b	 1	 1	 754.81	 0.74	 0.70	 1.027271e+01	 
MRI_faces_122	 1	 2	 02	 2	 4	 1.402253e+01	 2006.jpg	 1050.jpg	 12	 17	 0	 b	 1	 0	 1072.71	 0.70	 0.66	 1.558930e+01	 
MRI_faces_122	 1	 2	 02	 2	 5	 1.702259e+01	 2039.jpg	 2212.jpg	 16	 13	 1	 y	 1	 0	 750.66	 0.67	 0.70	 1.827280e+01	 
MRI_faces_122	 1	 2	 02	 2	 6	 2.002260e+01	 2015.jpg	 1216.jpg	 14	 18	 1	 b	 1	 1	 699.68	 0.67	 0.65	 2.122286e+01	 
MRI_faces_122	 1	 2	 02	 2	 7	 3.402281e+01	 1052.jpg	 2058.jpg	 53	 49	 0	 b	 2	 0	 827.44	 0.27	 0.31	 3.535454e+01	 
MRI_faces_122	 1	 2	 02	 2	 8	 3.802295e+01	 1150.jpg	 1130.jpg	 46	 45	 1	 y	 2	 0	 572.30	 0.34	 0.37	 3.908974e+01	 
MRI_faces_122	 1	 2	 02	 2	 9	 4.202296e+01	 2089.jpg	 2053.jpg	 11	 10	 1	 b	 1	 1	 742.30	 0.70	 0.70	 4.325650e+01	 
MRI_faces_122	 1	 2	 02	 2	 10	 4.502294e+01	 1226.jpg	 1019.jpg	 47	 43	 0	 y	 2	 1	 1000.30	 0.34	 0.40	 4.652322e+01	 
MRI_faces_122	 1	 2	 02	 2	 11	 4.802316e+01	 1127.jpg	 1060.jpg	 48	 52	 1	 b	 2	 1	 769.09	 0.33	 0.28	 4.929033e+01	 
MRI_faces_122	 1	 2	 02	 2	 12	 5.302402e+01	 2212.jpg	 2015.jpg	 13	 14	 0	 y	 1	 1	 690.24	 0.70	 0.67	 5.420765e+01	 
MRI_faces_122	 1	 2	 02	 2	 13	 5.602436e+01	 1173.jpg	 1204.jpg	 54	 50	 1	 b	 2	 1	 879.89	 0.26	 0.29	 5.740674e+01	 
MRI_faces_122	 1	 2	 02	 2	 14	 6.602698e+01	 1226.jpg	 1150.jpg	 47	 46	 0	 b	 2	 0	 764.27	 0.34	 0.34	 6.729017e+01	 
MRI_faces_122	 1	 2	 02	 2	 15	 7.202737e+01	 2053.jpg	 1050.jpg	 10	 17	 0	 b	 1	 0	 1032.88	 0.70	 0.66	 7.355689e+01	 
MRI_faces_122	 1	 2	 02	 2	 16	 7.502335e+01	 1150.jpg	 1060.jpg	 46	 52	 1	 b	 2	 1	 1006.89	 0.34	 0.28	 7.652820e+01	 
MRI_faces_122	 1	 2	 02	 2	 17	 7.902347e+01	 1183.jpg	 2112.jpg	 56	 5	 0	 y	 4	 1	 791.78	 0.19	 0.81	 8.031237e+01	 
MRI_faces_122	 1	 2	 02	 2	 18	 8.402351e+01	 1130.jpg	 1173.jpg	 45	 54	 0	 y	 2	 1	 1297.74	 0.37	 0.26	 8.582376e+01	 
MRI_faces_122	 1	 2	 02	 2	 19	 9.102365e+01	 1127.jpg	 1204.jpg	 48	 50	 1	 b	 2	 1	 1448.60	 0.33	 0.29	 9.297393e+01	 
MRI_faces_122	 1	 2	 02	 2	 20	 9.602379e+01	 1226.jpg	 2045.jpg	 47	 51	 0	 y	 2	 1	 896.46	 0.34	 0.29	 9.742399e+01	 
MRI_faces_122	 1	 2	 02	 2	 21	 9.902371e+01	 2045.jpg	 1052.jpg	 51	 53	 1	 b	 2	 1	 927.54	 0.29	 0.27	 1.004493e+02	 
MRI_faces_122	 1	 2	 02	 2	 22	 1.050238e+02	 2212.jpg	 1191.jpg	 13	 9	 0	 y	 1	 1	 940.46	 0.70	 0.71	 1.064669e+02	 
MRI_faces_122	 1	 2	 02	 2	 23	 1.090239e+02	 2164.jpg	 2058.jpg	 44	 49	 0	 y	 2	 1	 851.36	 0.40	 0.31	 1.103742e+02	 
MRI_faces_122	 1	 2	 02	 2	 24	 1.210240e+02	 1191.jpg	 2006.jpg	 9	 12	 1	 b	 1	 1	 822.25	 0.71	 0.70	 1.223409e+02	 
MRI_faces_122	 1	 2	 02	 2	 25	 1.240241e+02	 1183.jpg	 1031.jpg	 56	 6	 0	 y	 4	 1	 863.12	 0.19	 0.74	 1.253869e+02	 
MRI_faces_122	 1	 2	 02	 2	 26	 1.270241e+02	 2053.jpg	 2015.jpg	 10	 14	 0	 y	 1	 1	 790.16	 0.70	 0.67	 1.283078e+02	 
MRI_faces_122	 1	 2	 02	 2	 27	 1.310241e+02	 1130.jpg	 2045.jpg	 45	 51	 0	 y	 2	 1	 1264.12	 0.37	 0.29	 1.327910e+02	 
MRI_faces_122	 1	 2	 02	 2	 28	 1.370242e+02	 2058.jpg	 1130.jpg	 49	 45	 1	 b	 2	 1	 666.03	 0.31	 0.37	 1.381911e+02	 
MRI_faces_122	 1	 2	 02	 2	 29	 1.400243e+02	 2039.jpg	 1035.jpg	 16	 15	 1	 b	 1	 1	 769.93	 0.67	 0.67	 1.412912e+02	 
MRI_faces_122	 1	 2	 02	 2	 30	 1.490244e+02	 1150.jpg	 2164.jpg	 46	 44	 1	 y	 2	 0	 807.85	 0.34	 0.40	 1.503247e+02	 
MRI_faces_122	 1	 2	 02	 2	 31	 1.530248e+02	 1027.jpg	 2212.jpg	 8	 13	 1	 y	 1	 0	 838.43	 0.74	 0.70	 1.543586e+02	 
MRI_faces_122	 1	 2	 02	 2	 32	 1.570255e+02	 2058.jpg	 1204.jpg	 49	 50	 1	 b	 2	 1	 878.76	 0.31	 0.29	 1.583927e+02	 
MRI_faces_122	 1	 2	 02	 2	 33	 1.600283e+02	 1052.jpg	 1173.jpg	 53	 54	 0	 b	 2	 0	 733.97	 0.27	 0.26	 1.612597e+02	 
MRI_faces_122	 1	 2	 02	 2	 34	 1.630266e+02	 1127.jpg	 1130.jpg	 48	 45	 1	 b	 2	 1	 935.66	 0.33	 0.37	 1.644603e+02	 
MRI_faces_122	 1	 2	 02	 2	 35	 1.730247e+02	 1050.jpg	 1013.jpg	 17	 7	 1	 b	 1	 1	 1011.54	 0.66	 0.74	 1.745288e+02	 
MRI_faces_122	 1	 2	 02	 2	 36	 1.770248e+02	 1216.jpg	 2089.jpg	 18	 11	 0	 y	 1	 1	 762.45	 0.65	 0.70	 1.782795e+02	 
MRI_faces_122	 1	 2	 02	 2	 37	 1.850249e+02	 2089.jpg	 1035.jpg	 11	 15	 1	 b	 1	 1	 1146.33	 0.70	 0.67	 1.866641e+02	 
MRI_faces_122	 1	 2	 02	 2	 38	 1.880249e+02	 1013.jpg	 2089.jpg	 7	 11	 0	 y	 1	 1	 773.38	 0.74	 0.70	 1.892980e+02	 
