subjectID	scanner	order	block	run	trial	onsettime	ImageLeft	ImageRight	bidIndexLeft	bidIndexRight	IsleftGo	Response	PairType	Outcome	RT	bidLeft	bidRight	ixationTime	
MRI_faces_106	 1	 2	 02	 2	 1	 2.017198e+00	 1192.jpg	 1035.jpg	 18	 16	 0	 b	 1	 0	 783.57	 0.69	 0.72	 3.301752e+00	 
MRI_faces_106	 1	 2	 02	 2	 2	 6.017335e+00	 2181.jpg	 2209.jpg	 14	 15	 1	 b	 1	 1	 876.45	 0.74	 0.73	 7.397275e+00	 
MRI_faces_106	 1	 2	 02	 2	 3	 1.301737e+01	 1191.jpg	 2240.jpg	 11	 7	 1	 y	 1	 0	 949.41	 0.77	 0.80	 1.446751e+01	 
MRI_faces_106	 1	 2	 02	 2	 4	 1.601741e+01	 1080.jpg	 2153.jpg	 52	 49	 0	 y	 2	 1	 808.36	 0.20	 0.28	 1.731762e+01	 
MRI_faces_106	 1	 2	 02	 2	 5	 2.101751e+01	 1035.jpg	 1145.jpg	 16	 13	 1	 b	 1	 1	 1006.29	 0.72	 0.76	 2.251763e+01	 
MRI_faces_106	 1	 2	 02	 2	 6	 3.101783e+01	 1226.jpg	 2240.jpg	 9	 7	 1	 y	 1	 0	 830.94	 0.78	 0.80	 3.235150e+01	 
MRI_faces_106	 1	 2	 02	 2	 7	 3.401842e+01	 2039.jpg	 2153.jpg	 53	 49	 0	 y	 2	 1	 862.36	 0.18	 0.28	 3.538450e+01	 
MRI_faces_106	 1	 2	 02	 2	 8	 3.701889e+01	 2128.jpg	 2153.jpg	 47	 49	 0	 y	 2	 1	 979.89	 0.32	 0.28	 3.850270e+01	 
MRI_faces_106	 1	 2	 02	 2	 9	 4.602195e+01	 1183.jpg	 2024.jpg	 50	 48	 0	 b	 2	 0	 978.81	 0.26	 0.30	 4.748754e+01	 
MRI_faces_106	 1	 2	 02	 2	 10	 4.902107e+01	 2058.jpg	 1007.jpg	 51	 44	 1	 y	 2	 0	 826.72	 0.21	 0.36	 5.033809e+01	 
MRI_faces_106	 1	 2	 02	 2	 11	 5.901808e+01	 2218.jpg	 1007.jpg	 43	 44	 1	 y	 2	 0	 766.69	 0.36	 0.36	 6.028976e+01	 
MRI_faces_106	 1	 2	 02	 2	 12	 6.401809e+01	 2024.jpg	 1007.jpg	 48	 44	 1	 y	 2	 0	 974.66	 0.30	 0.36	 6.549076e+01	 
MRI_faces_106	 1	 2	 02	 2	 13	 6.901823e+01	 1007.jpg	 1204.jpg	 44	 46	 0	 y	 2	 1	 842.55	 0.36	 0.34	 7.035816e+01	 
MRI_faces_106	 1	 2	 02	 2	 14	 7.701827e+01	 1204.jpg	 2128.jpg	 46	 47	 1	 b	 2	 1	 940.50	 0.34	 0.32	 7.845960e+01	 
MRI_faces_106	 1	 2	 02	 2	 15	 8.401837e+01	 1073.jpg	 2043.jpg	 5	 55	 1	 b	 4	 1	 1080.41	 0.86	 0.18	 8.560192e+01	 
MRI_faces_106	 1	 2	 02	 2	 16	 8.801845e+01	 2209.jpg	 1035.jpg	 15	 16	 0	 y	 1	 1	 918.33	 0.73	 0.72	 8.943526e+01	 
MRI_faces_106	 1	 2	 02	 2	 17	 9.101844e+01	 2041.jpg	 2125.jpg	 8	 10	 1	 b	 1	 1	 1001.36	 0.79	 0.78	 9.251862e+01	 
MRI_faces_106	 1	 2	 02	 2	 18	 9.601858e+01	 2164.jpg	 2041.jpg	 12	 8	 0	 y	 1	 1	 746.21	 0.76	 0.79	 9.726289e+01	 
MRI_faces_106	 1	 2	 02	 2	 19	 9.901860e+01	 1080.jpg	 2218.jpg	 52	 43	 0	 b	 2	 0	 1345.18	 0.20	 0.36	 1.008636e+02	 
MRI_faces_106	 1	 2	 02	 2	 20	 1.070187e+02	 2181.jpg	 2240.jpg	 14	 7	 1	 b	 1	 1	 916.03	 0.74	 0.80	 1.084356e+02	 
MRI_faces_106	 1	 2	 02	 2	 21	 1.130189e+02	 2041.jpg	 1192.jpg	 8	 18	 1	 y	 1	 0	 939.91	 0.79	 0.69	 1.144522e+02	 
MRI_faces_106	 1	 2	 02	 2	 22	 1.180189e+02	 1060.jpg	 1183.jpg	 54	 50	 1	 y	 2	 0	 1078.82	 0.18	 0.26	 1.196002e+02	 
MRI_faces_106	 1	 2	 02	 2	 23	 1.230189e+02	 1017.jpg	 2240.jpg	 17	 7	 1	 b	 1	 1	 1234.83	 0.70	 0.80	 1.247524e+02	 
MRI_faces_106	 1	 2	 02	 2	 24	 1.260189e+02	 2041.jpg	 2209.jpg	 8	 15	 1	 b	 1	 1	 1109.82	 0.79	 0.73	 1.276193e+02	 
MRI_faces_106	 1	 2	 02	 2	 25	 1.400203e+02	 2125.jpg	 1017.jpg	 10	 17	 0	 y	 1	 1	 1022.53	 0.78	 0.70	 1.415373e+02	 
MRI_faces_106	 1	 2	 02	 2	 26	 1.430208e+02	 2155.jpg	 1073.jpg	 56	 5	 0	 y	 4	 1	 873.00	 0.17	 0.86	 1.443878e+02	 
MRI_faces_106	 1	 2	 02	 2	 27	 1.470214e+02	 1204.jpg	 2110.jpg	 46	 45	 1	 b	 2	 1	 1164.36	 0.34	 0.35	 1.486861e+02	 
MRI_faces_106	 1	 2	 02	 2	 28	 1.510221e+02	 2240.jpg	 2041.jpg	 7	 8	 0	 b	 1	 0	 1214.64	 0.80	 0.79	 1.527361e+02	 
MRI_faces_106	 1	 2	 02	 2	 29	 1.540226e+02	 2039.jpg	 2218.jpg	 53	 43	 0	 y	 2	 1	 1040.14	 0.18	 0.36	 1.555564e+02	 
MRI_faces_106	 1	 2	 02	 2	 30	 1.570194e+02	 1192.jpg	 1226.jpg	 18	 9	 0	 b	 1	 0	 1154.34	 0.69	 0.78	 1.586737e+02	 
MRI_faces_106	 1	 2	 02	 2	 31	 1.630195e+02	 2164.jpg	 1017.jpg	 12	 17	 0	 y	 1	 1	 698.26	 0.76	 0.70	 1.642196e+02	 
MRI_faces_106	 1	 2	 02	 2	 32	 1.690196e+02	 2110.jpg	 2218.jpg	 45	 43	 0	 b	 2	 0	 1055.20	 0.35	 0.36	 1.705756e+02	 
MRI_faces_106	 1	 2	 02	 2	 33	 1.720202e+02	 2110.jpg	 1060.jpg	 45	 54	 0	 b	 2	 0	 1027.62	 0.35	 0.18	 1.735430e+02	 
MRI_faces_106	 1	 2	 02	 2	 34	 1.750196e+02	 2153.jpg	 2110.jpg	 49	 45	 1	 b	 2	 1	 854.15	 0.28	 0.35	 1.763767e+02	 
MRI_faces_106	 1	 2	 02	 2	 35	 1.790197e+02	 2125.jpg	 1035.jpg	 10	 16	 0	 b	 1	 0	 1055.07	 0.78	 0.72	 1.805774e+02	 
MRI_faces_106	 1	 2	 02	 2	 36	 1.820202e+02	 1035.jpg	 2164.jpg	 16	 12	 1	 b	 1	 1	 987.65	 0.72	 0.76	 1.835032e+02	 
MRI_faces_106	 1	 2	 02	 2	 37	 1.850198e+02	 2058.jpg	 1080.jpg	 51	 52	 1	 y	 2	 0	 994.98	 0.21	 0.20	 1.865117e+02	 
MRI_faces_106	 1	 2	 02	 2	 38	 1.880199e+02	 2110.jpg	 2058.jpg	 45	 51	 0	 b	 2	 0	 1092.89	 0.35	 0.21	 1.896124e+02	 
