subjectID	scanner	order	block	run	trial	onsettime	ImageLeft	ImageRight	bidIndexLeft	bidIndexRight	IsleftGo	Response	PairType	Outcome	RT	bidLeft	bidRight	ixationTime	
MRI_faces_117	 1	 1	 01	 2	 1	 2.013487e+00	 2112.jpg	 1052.jpg	 47	 48	 1	 y	 2	 0	 686.14	 0.29	 0.27	 3.198121e+00	 
MRI_faces_117	 1	 1	 01	 2	 2	 9.014672e+00	 1183.jpg	 2164.jpg	 15	 8	 1	 b	 1	 1	 1185.95	 0.67	 0.77	 1.069847e+01	 
MRI_faces_117	 1	 1	 01	 2	 3	 2.201695e+01	 1262.jpg	 2058.jpg	 44	 54	 1	 b	 2	 1	 1181.66	 0.32	 0.20	 2.370090e+01	 
MRI_faces_117	 1	 1	 01	 2	 4	 2.601774e+01	 2041.jpg	 1114.jpg	 9	 10	 0	 y	 1	 1	 1144.91	 0.75	 0.74	 2.766340e+01	 
MRI_faces_117	 1	 1	 01	 2	 5	 3.101852e+01	 2063.jpg	 2248.jpg	 46	 53	 0	 b	 2	 0	 1249.05	 0.31	 0.20	 3.276900e+01	 
MRI_faces_117	 1	 1	 01	 2	 6	 3.401914e+01	 2128.jpg	 1035.jpg	 55	 5	 0	 y	 4	 1	 1080.51	 0.19	 0.80	 3.559680e+01	 
MRI_faces_117	 1	 1	 01	 2	 7	 3.902001e+01	 1050.jpg	 2164.jpg	 7	 8	 1	 b	 1	 1	 979.60	 0.79	 0.77	 4.049682e+01	 
MRI_faces_117	 1	 1	 01	 2	 8	 4.302068e+01	 1262.jpg	 1052.jpg	 44	 48	 1	 y	 2	 0	 1349.93	 0.32	 0.27	 4.486360e+01	 
MRI_faces_117	 1	 1	 01	 2	 9	 5.201363e+01	 1114.jpg	 1013.jpg	 10	 16	 1	 b	 1	 1	 973.97	 0.74	 0.67	 5.348927e+01	 
MRI_faces_117	 1	 1	 01	 2	 10	 5.701363e+01	 1210.jpg	 2053.jpg	 11	 12	 0	 b	 1	 0	 972.97	 0.72	 0.69	 5.849019e+01	 
MRI_faces_117	 1	 1	 01	 2	 11	 6.101373e+01	 1246.jpg	 1204.jpg	 43	 45	 0	 b	 2	 0	 1306.86	 0.34	 0.31	 6.282425e+01	 
MRI_faces_117	 1	 1	 01	 2	 12	 6.801378e+01	 2058.jpg	 2248.jpg	 54	 53	 0	 y	 2	 1	 1307.86	 0.20	 0.20	 6.982543e+01	 
MRI_faces_117	 1	 1	 01	 2	 13	 7.201381e+01	 2041.jpg	 1050.jpg	 9	 7	 0	 y	 1	 1	 1059.79	 0.75	 0.79	 7.357619e+01	 
MRI_faces_117	 1	 1	 01	 2	 14	 7.801389e+01	 2053.jpg	 1191.jpg	 12	 14	 1	 b	 1	 1	 998.72	 0.69	 0.67	 7.951405e+01	 
MRI_faces_117	 1	 1	 01	 2	 15	 8.301406e+01	 2125.jpg	 1191.jpg	 18	 14	 1	 y	 1	 0	 1012.55	 0.64	 0.67	 8.453089e+01	 
MRI_faces_117	 1	 1	 01	 2	 16	 8.701410e+01	 1183.jpg	 1127.jpg	 15	 17	 1	 b	 1	 1	 1252.53	 0.67	 0.65	 8.876434e+01	 
MRI_faces_117	 1	 1	 01	 2	 17	 9.001411e+01	 1127.jpg	 1019.jpg	 17	 13	 0	 y	 1	 1	 1040.51	 0.65	 0.68	 9.154763e+01	 
MRI_faces_117	 1	 1	 01	 2	 18	 9.301414e+01	 2063.jpg	 1204.jpg	 46	 45	 0	 b	 2	 0	 1433.44	 0.31	 0.31	 9.494762e+01	 
MRI_faces_117	 1	 1	 01	 2	 19	 9.701417e+01	 2149.jpg	 2094.jpg	 51	 52	 0	 x	 2	 999	 999000.00	 0.22	 0.21	 9.901433e+01	 
MRI_faces_117	 1	 1	 01	 2	 20	 1.100157e+02	 1050.jpg	 1013.jpg	 7	 16	 1	 b	 1	 1	 1000.83	 0.79	 0.67	 1.115161e+02	 
MRI_faces_117	 1	 1	 01	 2	 21	 1.140164e+02	 2164.jpg	 1114.jpg	 8	 10	 0	 y	 1	 1	 807.19	 0.77	 0.74	 1.153167e+02	 
MRI_faces_117	 1	 1	 01	 2	 22	 1.170169e+02	 2125.jpg	 2164.jpg	 18	 8	 1	 y	 1	 0	 1000.68	 0.64	 0.77	 1.185174e+02	 
MRI_faces_117	 1	 1	 01	 2	 23	 1.220179e+02	 2041.jpg	 2053.jpg	 9	 12	 0	 b	 1	 0	 957.75	 0.75	 0.69	 1.234682e+02	 
MRI_faces_117	 1	 1	 01	 2	 24	 1.250183e+02	 2128.jpg	 1226.jpg	 55	 6	 0	 y	 4	 1	 1076.31	 0.19	 0.79	 1.265854e+02	 
MRI_faces_117	 1	 1	 01	 2	 25	 1.290190e+02	 1204.jpg	 1052.jpg	 45	 48	 1	 y	 2	 0	 937.60	 0.31	 0.27	 1.304528e+02	 
MRI_faces_117	 1	 1	 01	 2	 26	 1.350147e+02	 2094.jpg	 2155.jpg	 52	 49	 1	 b	 2	 1	 1052.87	 0.21	 0.25	 1.365705e+02	 
MRI_faces_117	 1	 1	 01	 2	 27	 1.380148e+02	 1246.jpg	 1262.jpg	 43	 44	 0	 y	 2	 1	 1176.78	 0.34	 0.32	 1.396877e+02	 
MRI_faces_117	 1	 1	 01	 2	 28	 1.420213e+02	 1204.jpg	 2058.jpg	 45	 54	 1	 b	 2	 1	 1065.26	 0.31	 0.20	 1.435816e+02	 
MRI_faces_117	 1	 1	 01	 2	 29	 1.470149e+02	 2155.jpg	 1262.jpg	 49	 44	 0	 y	 2	 1	 802.73	 0.25	 0.32	 1.483225e+02	 
MRI_faces_117	 1	 1	 01	 2	 30	 1.510149e+02	 1210.jpg	 1019.jpg	 11	 13	 0	 y	 1	 1	 954.67	 0.72	 0.68	 1.524732e+02	 
MRI_faces_117	 1	 1	 01	 2	 31	 1.630151e+02	 2043.jpg	 2058.jpg	 50	 54	 1	 y	 2	 0	 889.48	 0.23	 0.20	 1.644087e+02	 
MRI_faces_117	 1	 1	 01	 2	 32	 1.690152e+02	 2063.jpg	 2043.jpg	 46	 50	 0	 b	 2	 0	 1188.45	 0.31	 0.23	 1.706986e+02	 
MRI_faces_117	 1	 1	 01	 2	 33	 1.720153e+02	 2094.jpg	 2058.jpg	 52	 54	 1	 b	 2	 1	 1123.34	 0.21	 0.20	 1.736436e+02	 
MRI_faces_117	 1	 1	 01	 2	 34	 1.760153e+02	 2058.jpg	 2112.jpg	 54	 47	 0	 y	 2	 1	 1063.31	 0.20	 0.29	 1.775821e+02	 
MRI_faces_117	 1	 1	 01	 2	 35	 1.790153e+02	 1013.jpg	 1183.jpg	 16	 15	 0	 y	 1	 1	 1080.37	 0.67	 0.67	 1.805988e+02	 
MRI_faces_117	 1	 1	 01	 2	 36	 1.820154e+02	 2248.jpg	 2155.jpg	 53	 49	 1	 y	 2	 0	 1271.22	 0.20	 0.25	 1.837822e+02	 
MRI_faces_117	 1	 1	 01	 2	 37	 1.850154e+02	 1050.jpg	 1127.jpg	 7	 17	 1	 b	 1	 1	 946.19	 0.79	 0.65	 1.864655e+02	 
MRI_faces_117	 1	 1	 01	 2	 38	 1.880154e+02	 2053.jpg	 2164.jpg	 12	 8	 1	 b	 1	 1	 1000.23	 0.69	 0.77	 1.895155e+02	 
