subjectID	scanner	order	block	run	trial	onsettime	ImageLeft	ImageRight	bidIndexLeft	bidIndexRight	IsleftGo	Response	PairType	Outcome	RT	bidLeft	bidRight	ixationTime	
MRI_faces_123	 1	 1	 03	 1	 1	 2.015493e+00	 2248.jpg	 2063.jpg	 13	 14	 1	 b	 1	 1	 889.13	 0.70	 0.70	 3.409721e+00	 
MRI_faces_123	 1	 1	 03	 1	 2	 6.015570e+00	 2155.jpg	 2218.jpg	 53	 46	 1	 y	 2	 0	 888.05	 0.21	 0.31	 7.410612e+00	 
MRI_faces_123	 1	 1	 03	 1	 3	 1.301571e+01	 1246.jpg	 1191.jpg	 49	 45	 0	 y	 2	 1	 803.91	 0.28	 0.32	 1.431577e+01	 
MRI_faces_123	 1	 1	 03	 1	 4	 1.601565e+01	 1255.jpg	 2125.jpg	 9	 15	 0	 y	 1	 1	 1066.96	 0.79	 0.69	 1.758260e+01	 
MRI_faces_123	 1	 1	 03	 1	 5	 2.101575e+01	 1073.jpg	 2125.jpg	 11	 15	 0	 y	 1	 1	 805.87	 0.72	 0.69	 2.232975e+01	 
MRI_faces_123	 1	 1	 03	 1	 6	 3.101593e+01	 2125.jpg	 1114.jpg	 15	 8	 1	 b	 1	 1	 853.69	 0.69	 0.80	 3.236606e+01	 
MRI_faces_123	 1	 1	 03	 1	 7	 3.401593e+01	 2218.jpg	 1127.jpg	 46	 50	 0	 b	 2	 0	 1076.69	 0.31	 0.27	 3.559958e+01	 
MRI_faces_123	 1	 1	 03	 1	 8	 3.701603e+01	 1127.jpg	 2110.jpg	 50	 51	 1	 b	 2	 1	 1253.58	 0.27	 0.25	 3.876629e+01	 
MRI_faces_123	 1	 1	 03	 1	 9	 4.601711e+01	 1114.jpg	 2089.jpg	 8	 10	 0	 b	 1	 0	 922.50	 0.80	 0.75	 4.743413e+01	 
MRI_faces_123	 1	 1	 03	 1	 10	 4.901767e+01	 2118.jpg	 2212.jpg	 18	 16	 1	 y	 1	 0	 1026.94	 0.66	 0.67	 5.055133e+01	 
MRI_faces_123	 1	 1	 03	 1	 11	 5.901940e+01	 2194.jpg	 1246.jpg	 47	 49	 1	 y	 2	 0	 1065.22	 0.31	 0.28	 6.058648e+01	 
MRI_faces_123	 1	 1	 03	 1	 12	 6.402023e+01	 2218.jpg	 1191.jpg	 46	 45	 0	 b	 2	 0	 1083.38	 0.31	 0.32	 6.560403e+01	 
MRI_faces_123	 1	 1	 03	 1	 13	 6.902111e+01	 1192.jpg	 1013.jpg	 54	 44	 0	 y	 2	 1	 819.52	 0.20	 0.32	 7.033830e+01	 
MRI_faces_123	 1	 1	 03	 1	 14	 7.702247e+01	 2194.jpg	 1080.jpg	 47	 48	 1	 b	 2	 1	 976.14	 0.31	 0.29	 7.850016e+01	 
MRI_faces_123	 1	 1	 03	 1	 15	 8.401669e+01	 2110.jpg	 2155.jpg	 51	 53	 0	 y	 2	 1	 809.93	 0.25	 0.21	 8.533350e+01	 
MRI_faces_123	 1	 1	 03	 1	 16	 8.801668e+01	 1246.jpg	 1013.jpg	 49	 44	 0	 y	 2	 1	 946.94	 0.28	 0.32	 8.946695e+01	 
MRI_faces_123	 1	 1	 03	 1	 17	 9.101667e+01	 2063.jpg	 2089.jpg	 14	 10	 0	 y	 1	 1	 1182.93	 0.70	 0.75	 9.270029e+01	 
MRI_faces_123	 1	 1	 03	 1	 18	 9.601677e+01	 2058.jpg	 2153.jpg	 56	 6	 0	 y	 4	 1	 823.85	 0.18	 0.82	 9.734285e+01	 
MRI_faces_123	 1	 1	 03	 1	 19	 9.901682e+01	 1127.jpg	 1246.jpg	 50	 49	 1	 b	 2	 1	 721.80	 0.27	 0.28	 1.002434e+02	 
MRI_faces_123	 1	 1	 03	 1	 20	 1.070169e+02	 1114.jpg	 2118.jpg	 8	 18	 0	 y	 1	 1	 925.69	 0.80	 0.66	 1.084447e+02	 
MRI_faces_123	 1	 1	 03	 1	 21	 1.130170e+02	 2053.jpg	 2248.jpg	 17	 13	 0	 y	 1	 1	 752.60	 0.67	 0.70	 1.142672e+02	 
MRI_faces_123	 1	 1	 03	 1	 22	 1.180171e+02	 1013.jpg	 2110.jpg	 44	 51	 1	 b	 2	 1	 862.49	 0.32	 0.25	 1.193840e+02	 
MRI_faces_123	 1	 1	 03	 1	 23	 1.230172e+02	 2248.jpg	 1114.jpg	 13	 8	 1	 b	 1	 1	 777.45	 0.70	 0.80	 1.243007e+02	 
MRI_faces_123	 1	 1	 03	 1	 24	 1.260172e+02	 2118.jpg	 2053.jpg	 18	 17	 1	 b	 1	 1	 941.45	 0.66	 0.67	 1.274647e+02	 
MRI_faces_123	 1	 1	 03	 1	 25	 1.400174e+02	 2181.jpg	 2212.jpg	 7	 16	 1	 b	 1	 1	 859.25	 0.80	 0.67	 1.413677e+02	 
MRI_faces_123	 1	 1	 03	 1	 26	 1.430173e+02	 1052.jpg	 1202.jpg	 55	 5	 0	 y	 4	 1	 928.27	 0.20	 0.84	 1.444510e+02	 
MRI_faces_123	 1	 1	 03	 1	 27	 1.470180e+02	 1192.jpg	 2194.jpg	 54	 47	 0	 y	 2	 1	 805.65	 0.20	 0.31	 1.483185e+02	 
MRI_faces_123	 1	 1	 03	 1	 28	 1.510187e+02	 2248.jpg	 1073.jpg	 13	 11	 1	 b	 1	 1	 873.96	 0.70	 0.72	 1.523858e+02	 
MRI_faces_123	 1	 1	 03	 1	 29	 1.540192e+02	 1246.jpg	 2041.jpg	 49	 52	 0	 y	 2	 1	 859.38	 0.28	 0.24	 1.553696e+02	 
MRI_faces_123	 1	 1	 03	 1	 30	 1.570197e+02	 2155.jpg	 1192.jpg	 53	 54	 1	 y	 2	 0	 962.87	 0.21	 0.20	 1.584869e+02	 
MRI_faces_123	 1	 1	 03	 1	 31	 1.630207e+02	 2010.jpg	 2212.jpg	 12	 16	 1	 b	 1	 1	 920.87	 0.72	 0.67	 1.644379e+02	 
MRI_faces_123	 1	 1	 03	 1	 32	 1.690219e+02	 2089.jpg	 1073.jpg	 10	 11	 1	 b	 1	 1	 816.75	 0.75	 0.72	 1.703389e+02	 
MRI_faces_123	 1	 1	 03	 1	 33	 1.720223e+02	 2110.jpg	 2041.jpg	 51	 52	 0	 y	 2	 1	 853.29	 0.25	 0.24	 1.733728e+02	 
MRI_faces_123	 1	 1	 03	 1	 34	 1.750228e+02	 2155.jpg	 1246.jpg	 53	 49	 1	 y	 2	 0	 947.79	 0.21	 0.28	 1.764679e+02	 
MRI_faces_123	 1	 1	 03	 1	 35	 1.790236e+02	 1013.jpg	 2218.jpg	 44	 46	 1	 b	 2	 1	 980.08	 0.32	 0.31	 1.805013e+02	 
MRI_faces_123	 1	 1	 03	 1	 36	 1.820241e+02	 1073.jpg	 2010.jpg	 11	 12	 0	 y	 1	 1	 1053.49	 0.72	 0.72	 1.835745e+02	 
MRI_faces_123	 1	 1	 03	 1	 37	 1.850246e+02	 2118.jpg	 2063.jpg	 18	 14	 1	 b	 1	 1	 1043.02	 0.66	 0.70	 1.865582e+02	 
MRI_faces_123	 1	 1	 03	 1	 38	 1.880180e+02	 1255.jpg	 2248.jpg	 9	 13	 0	 y	 1	 1	 1027.61	 0.79	 0.70	 1.895514e+02	 
