subjectID	scanner	order	block	run	trial	onsettime	ImageLeft	ImageRight	bidIndexLeft	bidIndexRight	IsleftGo	Response	PairType	Outcome	RT	bidLeft	bidRight	ixationTime	
MRI_faces_111	 1	 1	 03	 1	 1	 2.015994e+00	 2110.jpg	 2058.jpg	 53	 54	 1	 y	 2	 0	 924.34	 0.25	 0.25	 3.433874e+00	 
MRI_faces_111	 1	 1	 03	 1	 2	 9.016933e+00	 1052.jpg	 2153.jpg	 15	 14	 1	 b	 1	 1	 821.43	 0.65	 0.66	 1.033396e+01	 
MRI_faces_111	 1	 1	 03	 1	 3	 2.201935e+01	 2153.jpg	 1127.jpg	 14	 12	 0	 y	 1	 1	 703.00	 0.66	 0.72	 2.321951e+01	 
MRI_faces_111	 1	 1	 03	 1	 4	 2.601990e+01	 1150.jpg	 2248.jpg	 55	 6	 0	 y	 4	 1	 833.43	 0.23	 0.82	 2.735365e+01	 
MRI_faces_111	 1	 1	 03	 1	 5	 3.102077e+01	 2209.jpg	 1019.jpg	 43	 50	 0	 b	 2	 0	 871.57	 0.35	 0.28	 3.238789e+01	 
MRI_faces_111	 1	 1	 03	 1	 6	 3.402132e+01	 1027.jpg	 2110.jpg	 49	 53	 0	 b	 2	 0	 808.02	 0.28	 0.25	 3.532165e+01	 
MRI_faces_111	 1	 1	 03	 1	 7	 3.902217e+01	 2240.jpg	 2058.jpg	 45	 54	 1	 y	 2	 0	 997.18	 0.34	 0.25	 4.051675e+01	 
MRI_faces_111	 1	 1	 03	 1	 8	 4.301663e+01	 2153.jpg	 2181.jpg	 14	 13	 0	 y	 1	 1	 965.72	 0.66	 0.71	 4.448346e+01	 
MRI_faces_111	 1	 1	 03	 1	 9	 5.201673e+01	 2181.jpg	 1031.jpg	 13	 11	 1	 y	 1	 0	 854.62	 0.71	 0.72	 5.337486e+01	 
MRI_faces_111	 1	 1	 03	 1	 10	 5.701674e+01	 1130.jpg	 2063.jpg	 10	 17	 1	 b	 1	 1	 756.62	 0.73	 0.61	 5.827569e+01	 
MRI_faces_111	 1	 1	 03	 1	 11	 6.101684e+01	 2125.jpg	 2209.jpg	 47	 43	 1	 y	 2	 0	 850.47	 0.32	 0.35	 6.236700e+01	 
MRI_faces_111	 1	 1	 03	 1	 12	 6.801692e+01	 2094.jpg	 1027.jpg	 52	 49	 1	 b	 2	 1	 824.43	 0.26	 0.28	 6.934429e+01	 
MRI_faces_111	 1	 1	 03	 1	 13	 7.201699e+01	 1035.jpg	 2181.jpg	 8	 13	 0	 b	 1	 0	 785.35	 0.77	 0.71	 7.330041e+01	 
MRI_faces_111	 1	 1	 03	 1	 14	 7.801702e+01	 1191.jpg	 2015.jpg	 16	 18	 0	 b	 1	 0	 847.30	 0.63	 0.61	 7.936728e+01	 
MRI_faces_111	 1	 1	 03	 1	 15	 8.301709e+01	 2094.jpg	 2209.jpg	 52	 43	 1	 y	 2	 0	 724.25	 0.26	 0.35	 8.423389e+01	 
MRI_faces_111	 1	 1	 03	 1	 16	 8.701718e+01	 1019.jpg	 2058.jpg	 50	 54	 1	 b	 2	 1	 660.18	 0.28	 0.25	 8.818089e+01	 
MRI_faces_111	 1	 1	 03	 1	 17	 9.001730e+01	 1035.jpg	 1127.jpg	 8	 12	 0	 b	 1	 0	 736.05	 0.77	 0.72	 9.125068e+01	 
MRI_faces_111	 1	 1	 03	 1	 18	 9.301723e+01	 1127.jpg	 1202.jpg	 12	 9	 1	 y	 1	 0	 997.09	 0.72	 0.76	 9.451743e+01	 
MRI_faces_111	 1	 1	 03	 1	 19	 9.701735e+01	 2209.jpg	 2110.jpg	 43	 53	 0	 b	 2	 0	 827.97	 0.35	 0.25	 9.834943e+01	 
MRI_faces_111	 1	 1	 03	 1	 20	 1.100204e+02	 2218.jpg	 2209.jpg	 44	 43	 1	 y	 2	 0	 1008.92	 0.35	 0.35	 1.115183e+02	 
MRI_faces_111	 1	 1	 03	 1	 21	 1.140186e+02	 2063.jpg	 1127.jpg	 17	 12	 0	 b	 1	 0	 946.75	 0.61	 0.72	 1.154678e+02	 
MRI_faces_111	 1	 1	 03	 1	 22	 1.170192e+02	 2063.jpg	 2015.jpg	 17	 18	 0	 b	 1	 0	 1072.13	 0.61	 0.61	 1.185861e+02	 
MRI_faces_111	 1	 1	 03	 1	 23	 1.220214e+02	 2015.jpg	 1031.jpg	 18	 11	 1	 y	 1	 0	 879.97	 0.61	 0.72	 1.234011e+02	 
MRI_faces_111	 1	 1	 03	 1	 24	 1.250206e+02	 1019.jpg	 1173.jpg	 50	 46	 1	 b	 2	 1	 868.77	 0.28	 0.34	 1.263875e+02	 
MRI_faces_111	 1	 1	 03	 1	 25	 1.290212e+02	 1191.jpg	 1127.jpg	 16	 12	 0	 b	 1	 0	 904.09	 0.63	 0.72	 1.304216e+02	 
MRI_faces_111	 1	 1	 03	 1	 26	 1.350178e+02	 1052.jpg	 1035.jpg	 15	 8	 1	 b	 1	 1	 873.56	 0.65	 0.77	 1.363893e+02	 
MRI_faces_111	 1	 1	 03	 1	 27	 1.380179e+02	 2240.jpg	 2041.jpg	 45	 48	 1	 y	 2	 0	 1081.44	 0.34	 0.31	 1.396014e+02	 
MRI_faces_111	 1	 1	 03	 1	 28	 1.420179e+02	 2110.jpg	 2149.jpg	 53	 51	 1	 b	 2	 1	 944.38	 0.25	 0.26	 1.434572e+02	 
MRI_faces_111	 1	 1	 03	 1	 29	 1.470180e+02	 1216.jpg	 2063.jpg	 7	 17	 1	 b	 1	 1	 921.34	 0.79	 0.61	 1.484414e+02	 
MRI_faces_111	 1	 1	 03	 1	 30	 1.510180e+02	 1202.jpg	 1130.jpg	 9	 10	 0	 b	 1	 0	 1029.36	 0.76	 0.73	 1.525421e+02	 
MRI_faces_111	 1	 1	 03	 1	 31	 1.630181e+02	 1150.jpg	 1246.jpg	 55	 5	 0	 y	 4	 1	 984.21	 0.23	 0.84	 1.645016e+02	 
MRI_faces_111	 1	 1	 03	 1	 32	 1.690182e+02	 2125.jpg	 1027.jpg	 47	 49	 1	 b	 2	 1	 1049.13	 0.32	 0.28	 1.705684e+02	 
MRI_faces_111	 1	 1	 03	 1	 33	 1.720183e+02	 1027.jpg	 2240.jpg	 49	 45	 0	 b	 2	 0	 902.01	 0.28	 0.34	 1.734185e+02	 
MRI_faces_111	 1	 1	 03	 1	 34	 1.760183e+02	 2209.jpg	 2240.jpg	 43	 45	 0	 b	 2	 0	 1008.00	 0.35	 0.34	 1.775297e+02	 
MRI_faces_111	 1	 1	 03	 1	 35	 1.790183e+02	 1130.jpg	 1191.jpg	 10	 16	 1	 y	 1	 0	 1388.00	 0.73	 0.63	 1.809019e+02	 
MRI_faces_111	 1	 1	 03	 1	 36	 1.820185e+02	 2041.jpg	 1019.jpg	 48	 50	 0	 y	 2	 1	 1347.87	 0.31	 0.28	 1.838686e+02	 
MRI_faces_111	 1	 1	 03	 1	 37	 1.850184e+02	 1191.jpg	 1052.jpg	 16	 15	 0	 y	 1	 1	 848.93	 0.63	 0.65	 1.863686e+02	 
MRI_faces_111	 1	 1	 03	 1	 38	 1.880185e+02	 2058.jpg	 2094.jpg	 54	 52	 0	 b	 2	 0	 722.85	 0.25	 0.26	 1.892353e+02	 
