subjectID	scanner	order	block	run	trial	onsettime	ImageLeft	ImageRight	bidIndexLeft	bidIndexRight	IsleftGo	Response	PairType	Outcome	RT	bidLeft	bidRight	ixationTime	
MRI_faces_102	 1	 2	 02	 2	 1	 2.013737e+00	 2248.jpg	 1262.jpg	 13	 11	 0	 b	 1	 0	 753.78	 0.72	 0.73	 3.264996e+00	 
MRI_faces_102	 1	 2	 02	 2	 2	 6.014340e+00	 1013.jpg	 1173.jpg	 45	 54	 0	 y	 2	 1	 808.13	 0.29	 0.21	 7.326747e+00	 
MRI_faces_102	 1	 2	 02	 2	 3	 9.014846e+00	 1052.jpg	 1130.jpg	 49	 44	 1	 y	 2	 0	 1027.66	 0.28	 0.35	 1.054865e+01	 
MRI_faces_102	 1	 2	 02	 2	 4	 1.401574e+01	 1035.jpg	 2010.jpg	 7	 8	 0	 b	 1	 0	 704.74	 0.79	 0.77	 1.521617e+01	 
MRI_faces_102	 1	 2	 02	 2	 5	 1.701626e+01	 2089.jpg	 2015.jpg	 15	 14	 0	 y	 1	 1	 715.22	 0.68	 0.70	 1.823331e+01	 
MRI_faces_102	 1	 2	 02	 2	 6	 2.001678e+01	 1127.jpg	 2045.jpg	 51	 50	 1	 b	 2	 1	 1053.71	 0.24	 0.24	 2.156719e+01	 
MRI_faces_102	 1	 2	 02	 2	 7	 3.401929e+01	 1052.jpg	 1192.jpg	 49	 47	 1	 b	 2	 1	 1035.20	 0.28	 0.29	 3.555304e+01	 
MRI_faces_102	 1	 2	 02	 2	 8	 3.801994e+01	 1027.jpg	 2045.jpg	 48	 50	 1	 b	 2	 1	 1014.55	 0.28	 0.24	 3.952723e+01	 
MRI_faces_102	 1	 2	 02	 2	 9	 4.202076e+01	 1013.jpg	 1127.jpg	 45	 51	 0	 y	 2	 1	 1165.74	 0.29	 0.24	 4.367729e+01	 
MRI_faces_102	 1	 2	 02	 2	 10	 4.501056e+01	 2010.jpg	 1191.jpg	 8	 18	 1	 b	 1	 1	 737.93	 0.77	 0.66	 4.625494e+01	 
MRI_faces_102	 1	 2	 02	 2	 11	 4.801066e+01	 1191.jpg	 1262.jpg	 18	 11	 0	 b	 1	 0	 1127.83	 0.66	 0.73	 4.964410e+01	 
MRI_faces_102	 1	 2	 02	 2	 12	 5.301077e+01	 2118.jpg	 1246.jpg	 5	 55	 1	 b	 4	 1	 794.72	 0.85	 0.21	 5.431078e+01	 
MRI_faces_102	 1	 2	 02	 2	 13	 5.601072e+01	 1127.jpg	 1150.jpg	 51	 53	 1	 b	 2	 1	 918.75	 0.24	 0.22	 5.744014e+01	 
MRI_faces_102	 1	 2	 02	 2	 14	 6.601085e+01	 1031.jpg	 1035.jpg	 17	 7	 1	 y	 1	 0	 1053.64	 0.67	 0.79	 6.757528e+01	 
MRI_faces_102	 1	 2	 02	 2	 15	 7.201100e+01	 1013.jpg	 1027.jpg	 45	 48	 0	 b	 2	 0	 1217.49	 0.29	 0.28	 7.372777e+01	 
MRI_faces_102	 1	 2	 02	 2	 16	 7.501095e+01	 1150.jpg	 1052.jpg	 53	 49	 0	 y	 2	 1	 964.53	 0.22	 0.28	 7.647785e+01	 
MRI_faces_102	 1	 2	 02	 2	 17	 7.901103e+01	 2181.jpg	 1191.jpg	 9	 18	 1	 b	 1	 1	 674.45	 0.76	 0.66	 8.019453e+01	 
MRI_faces_102	 1	 2	 02	 2	 18	 8.401145e+01	 2089.jpg	 2181.jpg	 15	 9	 0	 y	 1	 1	 723.03	 0.68	 0.76	 8.522812e+01	 
MRI_faces_102	 1	 2	 02	 2	 19	 9.101264e+01	 2248.jpg	 2010.jpg	 13	 8	 0	 y	 1	 1	 1094.85	 0.72	 0.77	 9.261294e+01	 
MRI_faces_102	 1	 2	 02	 2	 20	 9.601343e+01	 1027.jpg	 1060.jpg	 48	 52	 1	 b	 2	 1	 1211.06	 0.28	 0.24	 9.773056e+01	 
MRI_faces_102	 1	 2	 02	 2	 21	 9.901404e+01	 2212.jpg	 2010.jpg	 10	 8	 0	 y	 1	 1	 976.47	 0.75	 0.77	 1.004978e+02	 
MRI_faces_102	 1	 2	 02	 2	 22	 1.050151e+02	 1216.jpg	 1035.jpg	 16	 7	 1	 y	 1	 0	 1121.42	 0.68	 0.79	 1.066321e+02	 
MRI_faces_102	 1	 2	 02	 2	 23	 1.090158e+02	 1150.jpg	 1019.jpg	 53	 43	 0	 b	 2	 0	 1038.72	 0.22	 0.35	 1.105494e+02	 
MRI_faces_102	 1	 2	 02	 2	 24	 1.210178e+02	 1060.jpg	 1019.jpg	 52	 43	 0	 y	 2	 1	 898.70	 0.24	 0.35	 1.224182e+02	 
MRI_faces_102	 1	 2	 02	 2	 25	 1.240184e+02	 1262.jpg	 2153.jpg	 11	 12	 1	 y	 1	 0	 797.05	 0.73	 0.72	 1.253118e+02	 
MRI_faces_102	 1	 2	 02	 2	 26	 1.270189e+02	 1216.jpg	 1191.jpg	 16	 18	 1	 b	 1	 1	 768.64	 0.68	 0.66	 1.282859e+02	 
MRI_faces_102	 1	 2	 02	 2	 27	 1.310195e+02	 2089.jpg	 1216.jpg	 15	 16	 0	 b	 1	 0	 816.98	 0.68	 0.68	 1.323366e+02	 
MRI_faces_102	 1	 2	 02	 2	 28	 1.370206e+02	 1150.jpg	 1173.jpg	 53	 54	 0	 b	 2	 0	 821.94	 0.22	 0.21	 1.383376e+02	 
MRI_faces_102	 1	 2	 02	 2	 29	 1.400212e+02	 1127.jpg	 1060.jpg	 51	 52	 1	 b	 2	 1	 929.29	 0.24	 0.24	 1.414454e+02	 
MRI_faces_102	 1	 2	 02	 2	 30	 1.490120e+02	 1192.jpg	 1027.jpg	 47	 48	 0	 y	 2	 1	 923.48	 0.29	 0.28	 1.504455e+02	 
MRI_faces_102	 1	 2	 02	 2	 31	 1.530120e+02	 2153.jpg	 2015.jpg	 12	 14	 0	 b	 1	 0	 1216.42	 0.72	 0.70	 1.547288e+02	 
MRI_faces_102	 1	 2	 02	 2	 32	 1.570122e+02	 1173.jpg	 1060.jpg	 54	 52	 1	 y	 2	 0	 806.32	 0.21	 0.24	 1.583244e+02	 
MRI_faces_102	 1	 2	 02	 2	 33	 1.600137e+02	 1019.jpg	 1192.jpg	 43	 47	 1	 y	 2	 0	 904.82	 0.35	 0.29	 1.614250e+02	 
MRI_faces_102	 1	 2	 02	 2	 34	 1.630123e+02	 2110.jpg	 1114.jpg	 56	 6	 0	 y	 4	 1	 1054.23	 0.16	 0.82	 1.645755e+02	 
MRI_faces_102	 1	 2	 02	 2	 35	 1.730123e+02	 1031.jpg	 2089.jpg	 17	 15	 1	 y	 1	 0	 878.20	 0.67	 0.68	 1.743958e+02	 
MRI_faces_102	 1	 2	 02	 2	 36	 1.770123e+02	 2045.jpg	 1019.jpg	 50	 43	 0	 y	 2	 1	 932.15	 0.24	 0.35	 1.784459e+02	 
MRI_faces_102	 1	 2	 02	 2	 37	 1.850125e+02	 2181.jpg	 2153.jpg	 9	 12	 1	 b	 1	 1	 1280.97	 0.76	 0.72	 1.867961e+02	 
MRI_faces_102	 1	 2	 02	 2	 38	 1.880146e+02	 2181.jpg	 2212.jpg	 9	 10	 1	 b	 1	 1	 601.90	 0.76	 0.75	 1.891131e+02	 
