subjectID	scanner	order	block	run	trial	onsettime	ImageLeft	ImageRight	bidIndexLeft	bidIndexRight	IsleftGo	Response	PairType	Outcome	RT	bidLeft	bidRight	ixationTime	
MRI_faces_111	 1	 1	 02	 1	 1	 2.032156e+00	 2218.jpg	 2041.jpg	 44	 48	 1	 y	 2	 0	 744.14	 0.35	 0.31	 3.266858e+00	 
MRI_faces_111	 1	 1	 02	 1	 2	 9.032218e+00	 2063.jpg	 1052.jpg	 17	 15	 0	 y	 1	 1	 691.11	 0.61	 0.65	 1.021706e+01	 
MRI_faces_111	 1	 1	 02	 1	 3	 2.201898e+01	 1191.jpg	 1130.jpg	 16	 10	 0	 b	 1	 0	 874.30	 0.63	 0.73	 2.340278e+01	 
MRI_faces_111	 1	 1	 02	 1	 4	 2.601966e+01	 2149.jpg	 2094.jpg	 51	 52	 0	 b	 2	 0	 667.64	 0.26	 0.26	 2.719930e+01	 
MRI_faces_111	 1	 1	 02	 1	 5	 3.103251e+01	 2063.jpg	 1216.jpg	 17	 7	 0	 y	 1	 1	 696.82	 0.61	 0.79	 3.222094e+01	 
MRI_faces_111	 1	 1	 02	 1	 6	 3.403266e+01	 2094.jpg	 2209.jpg	 52	 43	 1	 y	 2	 0	 697.65	 0.26	 0.35	 3.522144e+01	 
MRI_faces_111	 1	 1	 02	 1	 7	 3.903261e+01	 1216.jpg	 2153.jpg	 7	 14	 1	 b	 1	 1	 757.69	 0.79	 0.66	 4.028910e+01	 
MRI_faces_111	 1	 1	 02	 1	 8	 4.302264e+01	 2153.jpg	 1127.jpg	 14	 12	 0	 y	 1	 1	 641.64	 0.66	 0.72	 4.417298e+01	 
MRI_faces_111	 1	 1	 02	 1	 9	 5.202428e+01	 2209.jpg	 2218.jpg	 43	 44	 0	 b	 2	 0	 723.05	 0.35	 0.35	 5.324964e+01	 
MRI_faces_111	 1	 1	 02	 1	 10	 5.702521e+01	 1019.jpg	 1173.jpg	 50	 46	 1	 b	 2	 1	 793.08	 0.28	 0.34	 5.832554e+01	 
MRI_faces_111	 1	 1	 02	 1	 11	 6.102589e+01	 2125.jpg	 1173.jpg	 47	 46	 1	 y	 2	 0	 663.39	 0.32	 0.34	 6.219298e+01	 
MRI_faces_111	 1	 1	 02	 1	 12	 6.802699e+01	 2094.jpg	 2058.jpg	 52	 54	 1	 y	 2	 0	 1186.31	 0.26	 0.25	 6.971654e+01	 
MRI_faces_111	 1	 1	 02	 1	 13	 7.202778e+01	 1127.jpg	 1031.jpg	 12	 11	 1	 y	 1	 0	 1123.55	 0.72	 0.72	 7.364997e+01	 
MRI_faces_111	 1	 1	 02	 1	 14	 7.802880e+01	 1150.jpg	 1246.jpg	 55	 5	 0	 y	 4	 1	 1142.53	 0.23	 0.84	 7.966670e+01	 
MRI_faces_111	 1	 1	 02	 1	 15	 8.302966e+01	 2063.jpg	 1130.jpg	 17	 10	 0	 y	 1	 1	 847.65	 0.61	 0.73	 8.438011e+01	 
MRI_faces_111	 1	 1	 02	 1	 16	 8.703040e+01	 1130.jpg	 1035.jpg	 10	 8	 1	 y	 1	 0	 1094.89	 0.73	 0.77	 8.861682e+01	 
MRI_faces_111	 1	 1	 02	 1	 17	 9.003086e+01	 2058.jpg	 2110.jpg	 54	 53	 0	 b	 2	 0	 920.44	 0.25	 0.25	 9.145014e+01	 
MRI_faces_111	 1	 1	 02	 1	 18	 9.303136e+01	 1246.jpg	 2164.jpg	 5	 56	 1	 b	 4	 1	 987.93	 0.84	 0.20	 9.451692e+01	 
MRI_faces_111	 1	 1	 02	 1	 19	 9.703213e+01	 1031.jpg	 2181.jpg	 11	 13	 0	 y	 1	 1	 705.16	 0.72	 0.71	 9.823367e+01	 
MRI_faces_111	 1	 1	 02	 1	 20	 1.100178e+02	 1216.jpg	 1191.jpg	 7	 16	 1	 b	 1	 1	 827.47	 0.79	 0.63	 1.113514e+02	 
MRI_faces_111	 1	 1	 02	 1	 21	 1.140185e+02	 2181.jpg	 1035.jpg	 13	 8	 1	 y	 1	 0	 806.78	 0.71	 0.77	 1.153354e+02	 
MRI_faces_111	 1	 1	 02	 1	 22	 1.170189e+02	 2240.jpg	 2058.jpg	 45	 54	 1	 b	 2	 1	 959.39	 0.34	 0.25	 1.184860e+02	 
MRI_faces_111	 1	 1	 02	 1	 23	 1.220198e+02	 2041.jpg	 2110.jpg	 48	 53	 0	 b	 2	 0	 831.50	 0.31	 0.25	 1.233536e+02	 
MRI_faces_111	 1	 1	 02	 1	 24	 1.250204e+02	 2209.jpg	 2110.jpg	 43	 53	 0	 b	 2	 0	 913.90	 0.35	 0.25	 1.264374e+02	 
MRI_faces_111	 1	 1	 02	 1	 25	 1.290210e+02	 1035.jpg	 2015.jpg	 8	 18	 0	 b	 1	 0	 1024.26	 0.77	 0.61	 1.305547e+02	 
MRI_faces_111	 1	 1	 02	 1	 26	 1.350221e+02	 2218.jpg	 1173.jpg	 44	 46	 1	 b	 2	 1	 815.19	 0.35	 0.34	 1.363390e+02	 
MRI_faces_111	 1	 1	 02	 1	 27	 1.380226e+02	 1202.jpg	 1130.jpg	 9	 10	 0	 b	 1	 0	 985.72	 0.76	 0.73	 1.395174e+02	 
MRI_faces_111	 1	 1	 02	 1	 28	 1.420233e+02	 1127.jpg	 1191.jpg	 12	 16	 1	 b	 1	 1	 781.01	 0.72	 0.63	 1.433070e+02	 
MRI_faces_111	 1	 1	 02	 1	 29	 1.470242e+02	 2218.jpg	 2058.jpg	 44	 54	 1	 b	 2	 1	 1144.12	 0.35	 0.25	 1.486746e+02	 
MRI_faces_111	 1	 1	 02	 1	 30	 1.510248e+02	 2240.jpg	 1027.jpg	 45	 49	 1	 b	 2	 1	 978.46	 0.34	 0.28	 1.525087e+02	 
MRI_faces_111	 1	 1	 02	 1	 31	 1.630270e+02	 2058.jpg	 1019.jpg	 54	 50	 0	 y	 2	 1	 1031.31	 0.25	 0.28	 1.645606e+02	 
MRI_faces_111	 1	 1	 02	 1	 32	 1.690280e+02	 2015.jpg	 2153.jpg	 18	 14	 1	 b	 1	 1	 867.35	 0.61	 0.66	 1.703950e+02	 
MRI_faces_111	 1	 1	 02	 1	 33	 1.720285e+02	 2149.jpg	 2240.jpg	 51	 45	 0	 b	 2	 0	 711.77	 0.26	 0.34	 1.732346e+02	 
MRI_faces_111	 1	 1	 02	 1	 34	 1.760292e+02	 2149.jpg	 2218.jpg	 51	 44	 0	 y	 2	 1	 908.12	 0.26	 0.35	 1.774346e+02	 
MRI_faces_111	 1	 1	 02	 1	 35	 1.790297e+02	 1035.jpg	 1127.jpg	 8	 12	 0	 b	 1	 0	 759.59	 0.77	 0.72	 1.802847e+02	 
MRI_faces_111	 1	 1	 02	 1	 36	 1.820303e+02	 1052.jpg	 2153.jpg	 15	 14	 1	 b	 1	 1	 823.00	 0.65	 0.66	 1.833514e+02	 
MRI_faces_111	 1	 1	 02	 1	 37	 1.850308e+02	 1216.jpg	 1035.jpg	 7	 8	 1	 y	 1	 0	 874.53	 0.79	 0.77	 1.864014e+02	 
MRI_faces_111	 1	 1	 02	 1	 38	 1.880313e+02	 2041.jpg	 2094.jpg	 48	 52	 0	 y	 2	 1	 880.04	 0.31	 0.26	 1.894015e+02	 
