subjectID	scanner	order	block	run	trial	onsettime	ImageLeft	ImageRight	bidIndexLeft	bidIndexRight	IsleftGo	Response	PairType	Outcome	RT	bidLeft	bidRight	ixationTime	
MRI_faces_146	 1	 2	 01	 1	 1	 2.017119e+00	 2058.jpg	 2153.jpg	 12	 8	 0	 y	 1	 1	 1224.68	 0.75	 0.80	 3.752097e+00	 
MRI_faces_146	 1	 2	 01	 1	 2	 9.018377e+00	 1027.jpg	 1183.jpg	 48	 44	 1	 x	 2	 999	 999000.00	 0.28	 0.34	 1.101876e+01	 
MRI_faces_146	 1	 2	 01	 1	 3	 2.202060e+01	 2089.jpg	 2110.jpg	 6	 55	 1	 b	 4	 1	 841.20	 0.82	 0.20	 2.336253e+01	 
MRI_faces_146	 1	 2	 01	 1	 4	 2.602131e+01	 1127.jpg	 1262.jpg	 50	 51	 0	 b	 2	 0	 1307.53	 0.26	 0.25	 2.782932e+01	 
MRI_faces_146	 1	 2	 01	 1	 5	 3.102224e+01	 1027.jpg	 1127.jpg	 48	 50	 1	 b	 2	 1	 1378.57	 0.28	 0.26	 3.290601e+01	 
MRI_faces_146	 1	 2	 01	 1	 6	 3.402269e+01	 1019.jpg	 2094.jpg	 54	 52	 1	 y	 2	 0	 1232.10	 0.21	 0.23	 3.575644e+01	 
MRI_faces_146	 1	 2	 01	 1	 7	 3.902359e+01	 2181.jpg	 2248.jpg	 11	 7	 1	 y	 1	 0	 912.23	 0.76	 0.81	 4.044071e+01	 
MRI_faces_146	 1	 2	 01	 1	 8	 4.302426e+01	 2041.jpg	 2058.jpg	 17	 12	 1	 y	 1	 0	 1410.55	 0.70	 0.75	 4.492955e+01	 
MRI_faces_146	 1	 2	 01	 1	 9	 5.202571e+01	 2128.jpg	 2181.jpg	 15	 11	 0	 b	 1	 0	 1001.09	 0.72	 0.76	 5.352624e+01	 
MRI_faces_146	 1	 2	 01	 1	 10	 5.702672e+01	 2218.jpg	 2248.jpg	 16	 7	 1	 y	 1	 0	 863.11	 0.72	 0.81	 5.837977e+01	 
MRI_faces_146	 1	 2	 01	 1	 11	 6.102728e+01	 2094.jpg	 1262.jpg	 52	 51	 0	 b	 2	 0	 925.52	 0.23	 0.25	 6.244646e+01	 
MRI_faces_146	 1	 2	 01	 1	 12	 6.802857e+01	 2240.jpg	 2058.jpg	 9	 12	 1	 y	 1	 0	 1415.25	 0.79	 0.75	 6.992991e+01	 
MRI_faces_146	 1	 2	 01	 1	 13	 7.201293e+01	 2153.jpg	 1255.jpg	 8	 18	 1	 b	 1	 1	 839.88	 0.80	 0.65	 7.336331e+01	 
MRI_faces_146	 1	 2	 01	 1	 14	 7.801377e+01	 1150.jpg	 2229.jpg	 56	 5	 0	 y	 4	 1	 769.02	 0.17	 0.82	 7.929740e+01	 
MRI_faces_146	 1	 2	 01	 1	 15	 8.301474e+01	 1262.jpg	 1013.jpg	 51	 47	 1	 b	 2	 1	 1262.08	 0.25	 0.30	 8.478177e+01	 
MRI_faces_146	 1	 2	 01	 1	 16	 8.701532e+01	 1183.jpg	 2155.jpg	 44	 43	 0	 b	 2	 0	 1196.47	 0.34	 0.36	 8.871574e+01	 
MRI_faces_146	 1	 2	 01	 1	 17	 9.001588e+01	 1080.jpg	 2240.jpg	 13	 9	 0	 y	 1	 1	 1267.94	 0.75	 0.79	 9.178300e+01	 
MRI_faces_146	 1	 2	 01	 1	 18	 9.301637e+01	 2194.jpg	 2155.jpg	 53	 43	 0	 b	 2	 0	 1013.44	 0.23	 0.36	 9.453353e+01	 
MRI_faces_146	 1	 2	 01	 1	 19	 9.701714e+01	 1027.jpg	 1013.jpg	 48	 47	 1	 b	 2	 1	 1318.68	 0.28	 0.30	 9.884705e+01	 
MRI_faces_146	 1	 2	 01	 1	 20	 1.100193e+02	 1210.jpg	 1127.jpg	 46	 50	 1	 b	 2	 1	 940.47	 0.30	 0.26	 1.114638e+02	 
MRI_faces_146	 1	 2	 01	 1	 21	 1.140200e+02	 2155.jpg	 1127.jpg	 43	 50	 1	 y	 2	 0	 1060.78	 0.36	 0.26	 1.155872e+02	 
MRI_faces_146	 1	 2	 01	 1	 22	 1.170206e+02	 2209.jpg	 2058.jpg	 14	 12	 1	 b	 1	 1	 1296.23	 0.73	 0.75	 1.188211e+02	 
MRI_faces_146	 1	 2	 01	 1	 23	 1.220215e+02	 2094.jpg	 1027.jpg	 52	 48	 0	 b	 2	 0	 1107.26	 0.23	 0.28	 1.236307e+02	 
MRI_faces_146	 1	 2	 01	 1	 24	 1.250220e+02	 1027.jpg	 2194.jpg	 48	 53	 1	 b	 2	 1	 1206.82	 0.28	 0.23	 1.267307e+02	 
MRI_faces_146	 1	 2	 01	 1	 25	 1.290227e+02	 1080.jpg	 2041.jpg	 13	 17	 0	 y	 1	 1	 996.09	 0.75	 0.70	 1.305230e+02	 
MRI_faces_146	 1	 2	 01	 1	 26	 1.350237e+02	 1080.jpg	 2218.jpg	 13	 16	 0	 y	 1	 1	 968.08	 0.75	 0.72	 1.364908e+02	 
MRI_faces_146	 1	 2	 01	 1	 27	 1.380242e+02	 1080.jpg	 2153.jpg	 13	 8	 0	 y	 1	 1	 900.56	 0.75	 0.80	 1.394246e+02	 
MRI_faces_146	 1	 2	 01	 1	 28	 1.420251e+02	 2010.jpg	 2041.jpg	 10	 17	 0	 b	 1	 0	 1063.76	 0.78	 0.70	 1.435809e+02	 
MRI_faces_146	 1	 2	 01	 1	 29	 1.470258e+02	 2218.jpg	 2058.jpg	 16	 12	 1	 y	 1	 0	 1305.97	 0.72	 0.75	 1.488310e+02	 
MRI_faces_146	 1	 2	 01	 1	 30	 1.510265e+02	 2240.jpg	 2128.jpg	 9	 15	 1	 y	 1	 0	 1261.29	 0.79	 0.72	 1.527810e+02	 
MRI_faces_146	 1	 2	 01	 1	 31	 1.630144e+02	 1019.jpg	 1127.jpg	 54	 50	 1	 b	 2	 1	 741.43	 0.21	 0.26	 1.642646e+02	 
MRI_faces_146	 1	 2	 01	 1	 32	 1.690145e+02	 2248.jpg	 2153.jpg	 7	 8	 0	 y	 1	 1	 1151.32	 0.81	 0.80	 1.706647e+02	 
MRI_faces_146	 1	 2	 01	 1	 33	 1.720161e+02	 1210.jpg	 1183.jpg	 46	 44	 1	 b	 2	 1	 1181.70	 0.30	 0.34	 1.736980e+02	 
MRI_faces_146	 1	 2	 01	 1	 34	 1.760158e+02	 1013.jpg	 2155.jpg	 47	 43	 0	 b	 2	 0	 956.99	 0.30	 0.36	 1.774814e+02	 
MRI_faces_146	 1	 2	 01	 1	 35	 1.790149e+02	 2010.jpg	 2181.jpg	 10	 11	 0	 b	 1	 0	 1324.95	 0.78	 0.76	 1.808485e+02	 
MRI_faces_146	 1	 2	 01	 1	 36	 1.820164e+02	 1013.jpg	 1019.jpg	 47	 54	 0	 b	 2	 0	 1152.44	 0.30	 0.21	 1.836658e+02	 
MRI_faces_146	 1	 2	 01	 1	 37	 1.850158e+02	 2194.jpg	 2045.jpg	 53	 49	 0	 b	 2	 0	 1260.99	 0.23	 0.28	 1.867831e+02	 
MRI_faces_146	 1	 2	 01	 1	 38	 1.880164e+02	 2010.jpg	 2209.jpg	 10	 14	 0	 y	 1	 1	 1181.43	 0.78	 0.73	 1.897001e+02	 
