subjectID	scanner	order	block	run	trial	onsettime	ImageLeft	ImageRight	bidIndexLeft	bidIndexRight	IsleftGo	Response	PairType	Outcome	RT	bidLeft	bidRight	ixationTime	
MRI_faces_138	 1	 2	 03	 2	 1	 2.020375e+00	 1150.jpg	 1262.jpg	 44	 51	 0	 y	 2	 1	 1211.66	 0.32	 0.25	 3.732033e+00	 
MRI_faces_138	 1	 2	 03	 2	 2	 6.020947e+00	 2053.jpg	 2125.jpg	 12	 9	 0	 b	 1	 0	 963.09	 0.71	 0.76	 7.481088e+00	 
MRI_faces_138	 1	 2	 03	 2	 3	 1.301443e+01	 2218.jpg	 2039.jpg	 16	 15	 1	 y	 1	 0	 891.62	 0.67	 0.70	 1.440592e+01	 
MRI_faces_138	 1	 2	 03	 2	 4	 1.602266e+01	 1202.jpg	 1027.jpg	 46	 52	 1	 b	 2	 1	 1073.36	 0.31	 0.25	 1.758978e+01	 
MRI_faces_138	 1	 2	 03	 2	 5	 2.101463e+01	 2125.jpg	 1031.jpg	 9	 10	 1	 b	 1	 1	 761.38	 0.76	 0.75	 2.228144e+01	 
MRI_faces_138	 1	 2	 03	 2	 6	 3.101464e+01	 1146.jpg	 1027.jpg	 48	 52	 1	 b	 2	 1	 882.39	 0.30	 0.25	 3.239830e+01	 
MRI_faces_138	 1	 2	 03	 2	 7	 3.401467e+01	 1035.jpg	 2218.jpg	 13	 16	 0	 b	 1	 0	 893.34	 0.71	 0.67	 3.541490e+01	 
MRI_faces_138	 1	 2	 03	 2	 8	 3.701477e+01	 2218.jpg	 2015.jpg	 16	 18	 1	 y	 1	 0	 1142.27	 0.67	 0.64	 3.866496e+01	 
MRI_faces_138	 1	 2	 03	 2	 9	 4.601494e+01	 2015.jpg	 2112.jpg	 18	 8	 0	 y	 1	 1	 781.07	 0.64	 0.77	 4.729850e+01	 
MRI_faces_138	 1	 2	 03	 2	 10	 4.901495e+01	 1216.jpg	 1146.jpg	 45	 48	 0	 y	 2	 1	 895.08	 0.32	 0.30	 5.041504e+01	 
MRI_faces_138	 1	 2	 03	 2	 11	 5.901504e+01	 1262.jpg	 1007.jpg	 51	 50	 1	 y	 2	 0	 889.99	 0.25	 0.28	 6.039865e+01	 
MRI_faces_138	 1	 2	 03	 2	 12	 6.401516e+01	 2112.jpg	 2039.jpg	 8	 15	 1	 b	 1	 1	 789.85	 0.77	 0.70	 6.529872e+01	 
MRI_faces_138	 1	 2	 03	 2	 13	 6.901535e+01	 1035.jpg	 1114.jpg	 13	 17	 0	 y	 1	 1	 792.68	 0.71	 0.65	 7.031541e+01	 
MRI_faces_138	 1	 2	 03	 2	 14	 7.701677e+01	 2058.jpg	 1127.jpg	 47	 43	 0	 b	 2	 0	 835.28	 0.31	 0.33	 7.835048e+01	 
MRI_faces_138	 1	 2	 03	 2	 15	 8.401878e+01	 1146.jpg	 2058.jpg	 48	 47	 1	 b	 2	 1	 974.25	 0.30	 0.31	 8.548501e+01	 
MRI_faces_138	 1	 2	 03	 2	 16	 8.801866e+01	 1150.jpg	 1146.jpg	 44	 48	 0	 y	 2	 1	 1212.40	 0.32	 0.30	 8.973224e+01	 
MRI_faces_138	 1	 2	 03	 2	 17	 9.101920e+01	 2218.jpg	 2053.jpg	 16	 12	 1	 y	 1	 0	 779.81	 0.67	 0.71	 9.229900e+01	 
MRI_faces_138	 1	 2	 03	 2	 18	 9.602000e+01	 1262.jpg	 1027.jpg	 51	 52	 1	 y	 2	 0	 1038.02	 0.25	 0.25	 9.755379e+01	 
MRI_faces_138	 1	 2	 03	 2	 19	 9.902053e+01	 1150.jpg	 1127.jpg	 44	 43	 0	 b	 2	 0	 740.51	 0.32	 0.33	 1.002543e+02	 
MRI_faces_138	 1	 2	 03	 2	 20	 1.070158e+02	 2006.jpg	 2218.jpg	 7	 16	 0	 b	 1	 0	 921.28	 0.81	 0.67	 1.084391e+02	 
MRI_faces_138	 1	 2	 03	 2	 21	 1.130158e+02	 2058.jpg	 1246.jpg	 47	 54	 0	 b	 2	 0	 1018.21	 0.31	 0.22	 1.145401e+02	 
MRI_faces_138	 1	 2	 03	 2	 22	 1.180238e+02	 1150.jpg	 1019.jpg	 44	 49	 0	 b	 2	 0	 1001.17	 0.32	 0.29	 1.195161e+02	 
MRI_faces_138	 1	 2	 03	 2	 23	 1.230160e+02	 1146.jpg	 1007.jpg	 48	 50	 1	 b	 2	 1	 1288.00	 0.30	 0.28	 1.248086e+02	 
MRI_faces_138	 1	 2	 03	 2	 24	 1.260160e+02	 2053.jpg	 2112.jpg	 12	 8	 0	 y	 1	 1	 886.02	 0.71	 0.77	 1.273995e+02	 
MRI_faces_138	 1	 2	 03	 2	 25	 1.400162e+02	 1127.jpg	 1007.jpg	 43	 50	 1	 y	 2	 0	 882.84	 0.33	 0.28	 1.413996e+02	 
MRI_faces_138	 1	 2	 03	 2	 26	 1.430162e+02	 2112.jpg	 1035.jpg	 8	 13	 1	 b	 1	 1	 733.84	 0.77	 0.71	 1.442498e+02	 
MRI_faces_138	 1	 2	 03	 2	 27	 1.470163e+02	 2125.jpg	 2039.jpg	 9	 15	 1	 b	 1	 1	 994.76	 0.76	 0.70	 1.485166e+02	 
MRI_faces_138	 1	 2	 03	 2	 28	 1.510163e+02	 1192.jpg	 1202.jpg	 53	 46	 0	 b	 2	 0	 901.71	 0.23	 0.31	 1.524164e+02	 
MRI_faces_138	 1	 2	 03	 2	 29	 1.540165e+02	 1013.jpg	 2212.jpg	 56	 6	 0	 y	 4	 1	 901.56	 0.19	 0.82	 1.554166e+02	 
MRI_faces_138	 1	 2	 03	 2	 30	 1.570164e+02	 2006.jpg	 2063.jpg	 7	 11	 0	 y	 1	 1	 1101.61	 0.81	 0.72	 1.586166e+02	 
MRI_faces_138	 1	 2	 03	 2	 31	 1.630166e+02	 2125.jpg	 1035.jpg	 9	 13	 1	 b	 1	 1	 740.47	 0.76	 0.71	 1.642499e+02	 
MRI_faces_138	 1	 2	 03	 2	 32	 1.690166e+02	 2063.jpg	 1031.jpg	 11	 10	 1	 b	 1	 1	 1005.44	 0.72	 0.75	 1.705168e+02	 
MRI_faces_138	 1	 2	 03	 2	 33	 1.720186e+02	 1173.jpg	 2181.jpg	 55	 5	 0	 y	 4	 1	 1050.40	 0.20	 0.82	 1.735670e+02	 
MRI_faces_138	 1	 2	 03	 2	 34	 1.750171e+02	 2058.jpg	 1019.jpg	 47	 49	 0	 b	 2	 0	 806.89	 0.31	 0.29	 1.763175e+02	 
MRI_faces_138	 1	 2	 03	 2	 35	 1.790178e+02	 1262.jpg	 1216.jpg	 51	 45	 1	 y	 2	 0	 871.22	 0.25	 0.32	 1.803849e+02	 
MRI_faces_138	 1	 2	 03	 2	 36	 1.820192e+02	 2089.jpg	 2015.jpg	 14	 18	 1	 b	 1	 1	 842.84	 0.71	 0.64	 1.833521e+02	 
MRI_faces_138	 1	 2	 03	 2	 37	 1.850189e+02	 1114.jpg	 2015.jpg	 17	 18	 1	 b	 1	 1	 843.10	 0.65	 0.64	 1.863526e+02	 
MRI_faces_138	 1	 2	 03	 2	 38	 1.880195e+02	 1192.jpg	 1127.jpg	 53	 43	 0	 b	 2	 0	 943.52	 0.23	 0.33	 1.894532e+02	 
