subjectID	scanner	order	block	run	trial	onsettime	ImageLeft	ImageRight	bidIndexLeft	bidIndexRight	IsleftGo	Response	PairType	Outcome	RT	bidLeft	bidRight	ixationTime	onset	duration
MRI_faces_138	1	2	3	2	1	2.020375	1150.jpg	1262.jpg	44	51	0	y	2	1	1211.66	0.32	0.25	3.732033	2.020375	1.21166
MRI_faces_138	1	2	3	2	2	6.020947	2053.jpg	2125.jpg	12	9	0	b	1	0	963.09	0.71	0.76	7.481088	6.020947	0.96309
MRI_faces_138	1	2	3	2	3	13.01443	2218.jpg	2039.jpg	16	15	1	y	1	0	891.62	0.67	0.7	14.40592	13.01443	0.89162
MRI_faces_138	1	2	3	2	4	16.02266	1202.jpg	1027.jpg	46	52	1	b	2	1	1073.36	0.31	0.25	17.58978	16.02266	1.07336
MRI_faces_138	1	2	3	2	5	21.01463	2125.jpg	1031.jpg	9	10	1	b	1	1	761.38	0.76	0.75	22.28144	21.01463	0.76138
MRI_faces_138	1	2	3	2	6	31.01464	1146.jpg	1027.jpg	48	52	1	b	2	1	882.39	0.3	0.25	32.3983	31.01464	0.88239
MRI_faces_138	1	2	3	2	7	34.01467	1035.jpg	2218.jpg	13	16	0	b	1	0	893.34	0.71	0.67	35.4149	34.01467	0.89334
MRI_faces_138	1	2	3	2	8	37.01477	2218.jpg	2015.jpg	16	18	1	y	1	0	1142.27	0.67	0.64	38.66496	37.01477	1.14227
MRI_faces_138	1	2	3	2	9	46.01494	2015.jpg	2112.jpg	18	8	0	y	1	1	781.07	0.64	0.77	47.2985	46.01494	0.78107
MRI_faces_138	1	2	3	2	10	49.01495	1216.jpg	1146.jpg	45	48	0	y	2	1	895.08	0.32	0.3	50.41504	49.01495	0.89508
MRI_faces_138	1	2	3	2	11	59.01504	1262.jpg	1007.jpg	51	50	1	y	2	0	889.99	0.25	0.28	60.39865	59.01504	0.88999
MRI_faces_138	1	2	3	2	12	64.01516	2112.jpg	2039.jpg	8	15	1	b	1	1	789.85	0.77	0.7	65.29872	64.01516	0.78985
MRI_faces_138	1	2	3	2	13	69.01535	1035.jpg	1114.jpg	13	17	0	y	1	1	792.68	0.71	0.65	70.31541	69.01535	0.79268
MRI_faces_138	1	2	3	2	14	77.01677	2058.jpg	1127.jpg	47	43	0	b	2	0	835.28	0.31	0.33	78.35048	77.01677	0.83528
MRI_faces_138	1	2	3	2	15	84.01878	1146.jpg	2058.jpg	48	47	1	b	2	1	974.25	0.3	0.31	85.48501	84.01878	0.97425
MRI_faces_138	1	2	3	2	16	88.01866	1150.jpg	1146.jpg	44	48	0	y	2	1	1212.4	0.32	0.3	89.73224	88.01866	1.2124
MRI_faces_138	1	2	3	2	17	91.0192	2218.jpg	2053.jpg	16	12	1	y	1	0	779.81	0.67	0.71	92.299	91.0192	0.77981
MRI_faces_138	1	2	3	2	18	96.02	1262.jpg	1027.jpg	51	52	1	y	2	0	1038.02	0.25	0.25	97.55379	96.02	1.03802
MRI_faces_138	1	2	3	2	19	99.02053	1150.jpg	1127.jpg	44	43	0	b	2	0	740.51	0.32	0.33	100.2543	99.02053	0.74051
MRI_faces_138	1	2	3	2	20	107.0158	2006.jpg	2218.jpg	7	16	0	b	1	0	921.28	0.81	0.67	108.4391	107.0158	0.92128
MRI_faces_138	1	2	3	2	21	113.0158	2058.jpg	1246.jpg	47	54	0	b	2	0	1018.21	0.31	0.22	114.5401	113.0158	1.01821
MRI_faces_138	1	2	3	2	22	118.0238	1150.jpg	1019.jpg	44	49	0	b	2	0	1001.17	0.32	0.29	119.5161	118.0238	1.00117
MRI_faces_138	1	2	3	2	23	123.016	1146.jpg	1007.jpg	48	50	1	b	2	1	1288	0.3	0.28	124.8086	123.016	1.288
MRI_faces_138	1	2	3	2	24	126.016	2053.jpg	2112.jpg	12	8	0	y	1	1	886.02	0.71	0.77	127.3995	126.016	0.88602
MRI_faces_138	1	2	3	2	25	140.0162	1127.jpg	1007.jpg	43	50	1	y	2	0	882.84	0.33	0.28	141.3996	140.0162	0.88284
MRI_faces_138	1	2	3	2	26	143.0162	2112.jpg	1035.jpg	8	13	1	b	1	1	733.84	0.77	0.71	144.2498	143.0162	0.73384
MRI_faces_138	1	2	3	2	27	147.0163	2125.jpg	2039.jpg	9	15	1	b	1	1	994.76	0.76	0.7	148.5166	147.0163	0.99476
MRI_faces_138	1	2	3	2	28	151.0163	1192.jpg	1202.jpg	53	46	0	b	2	0	901.71	0.23	0.31	152.4164	151.0163	0.90171
MRI_faces_138	1	2	3	2	29	154.0165	1013.jpg	2212.jpg	56	6	0	y	4	1	901.56	0.19	0.82	155.4166	154.0165	0.90156
MRI_faces_138	1	2	3	2	30	157.0164	2006.jpg	2063.jpg	7	11	0	y	1	1	1101.61	0.81	0.72	158.6166	157.0164	1.10161
MRI_faces_138	1	2	3	2	31	163.0166	2125.jpg	1035.jpg	9	13	1	b	1	1	740.47	0.76	0.71	164.2499	163.0166	0.74047
MRI_faces_138	1	2	3	2	32	169.0166	2063.jpg	1031.jpg	11	10	1	b	1	1	1005.44	0.72	0.75	170.5168	169.0166	1.00544
MRI_faces_138	1	2	3	2	33	172.0186	1173.jpg	2181.jpg	55	5	0	y	4	1	1050.4	0.2	0.82	173.567	172.0186	1.0504
MRI_faces_138	1	2	3	2	34	175.0171	2058.jpg	1019.jpg	47	49	0	b	2	0	806.89	0.31	0.29	176.3175	175.0171	0.80689
MRI_faces_138	1	2	3	2	35	179.0178	1262.jpg	1216.jpg	51	45	1	y	2	0	871.22	0.25	0.32	180.3849	179.0178	0.87122
MRI_faces_138	1	2	3	2	36	182.0192	2089.jpg	2015.jpg	14	18	1	b	1	1	842.84	0.71	0.64	183.3521	182.0192	0.84284
MRI_faces_138	1	2	3	2	37	185.0189	1114.jpg	2015.jpg	17	18	1	b	1	1	843.1	0.65	0.64	186.3526	185.0189	0.8431
MRI_faces_138	1	2	3	2	38	188.0195	1192.jpg	1127.jpg	53	43	0	b	2	0	943.52	0.23	0.33	189.4532	188.0195	0.94352
