subjectID	scanner	order	block	run	trial	onsettime	ImageLeft	ImageRight	bidIndexLeft	bidIndexRight	IsleftGo	Response	PairType	Outcome	RT	bidLeft	bidRight	ixationTime	onset	duration
MRI_faces_136	1	2	4	1	1	2.013342	2045.jpg	1050.jpg	54	47	1	y	2	0	1151.66	0.25	0.34	3.67643	2.013342	1.15166
MRI_faces_136	1	2	4	1	2	6.013994	1192.jpg	1262.jpg	43	44	1	y	2	0	1490.97	0.38	0.37	8.01452	6.013994	1.49097
MRI_faces_136	1	2	4	1	3	9.014552	1216.jpg	1202.jpg	18	14	0	b	1	0	880.43	0.61	0.67	10.39821	9.014552	0.88043
MRI_faces_136	1	2	4	1	4	14.01543	1192.jpg	1150.jpg	43	52	1	y	2	0	739.55	0.38	0.27	15.25888	14.01543	0.73955
MRI_faces_136	1	2	4	1	5	17.01594	2181.jpg	2043.jpg	12	8	0	b	1	0	991.03	0.69	0.79	18.50896	17.01594	0.99103
MRI_faces_136	1	2	4	1	6	20.0165	2045.jpg	1060.jpg	54	53	1	b	2	1	957.47	0.25	0.26	21.47566	20.0165	0.95747
MRI_faces_136	1	2	4	1	7	34.01891	2045.jpg	2194.jpg	54	50	1	b	2	1	922.06	0.25	0.3	35.4425	34.01891	0.92206
MRI_faces_136	1	2	4	1	8	38.01965	2110.jpg	1035.jpg	56	6	0	b	4	0	924.33	0.16	0.81	39.44259	38.01965	0.92433
MRI_faces_136	1	2	4	1	9	42.02031	2041.jpg	1127.jpg	45	49	0	b	2	0	876.67	0.36	0.31	43.3927	42.02031	0.87667
MRI_faces_136	1	2	4	1	10	45.02091	2128.jpg	1073.jpg	17	15	1	b	1	1	817.05	0.65	0.66	46.33802	45.02091	0.81705
MRI_faces_136	1	2	4	1	11	48.02144	2212.jpg	2248.jpg	9	7	1	y	1	0	1031.53	0.76	0.8	49.55506	48.02144	1.03153
MRI_faces_136	1	2	4	1	12	53.02226	1216.jpg	2043.jpg	18	8	0	b	1	0	730.71	0.61	0.79	54.24297	53.02226	0.73071
MRI_faces_136	1	2	4	1	13	56.02279	1216.jpg	2229.jpg	18	11	0	b	1	0	630.18	0.61	0.69	57.14287	56.02279	0.63018
MRI_faces_136	1	2	4	1	14	66.02457	1262.jpg	2149.jpg	44	51	0	b	2	0	984.38	0.37	0.28	67.50821	66.02457	0.98438
MRI_faces_136	1	2	4	1	15	72.00934	2043.jpg	2063.jpg	8	13	1	b	1	1	785.64	0.79	0.68	73.30933	72.00934	0.78564
MRI_faces_136	1	2	4	1	16	75.00969	2041.jpg	2094.jpg	45	48	0	b	2	0	730.3	0.36	0.34	76.24321	75.00969	0.7303
MRI_faces_136	1	2	4	1	17	79.01017	1262.jpg	2010.jpg	44	46	0	y	2	1	1063.77	0.37	0.35	80.57725	79.01017	1.06377
MRI_faces_136	1	2	4	1	18	84.01104	2212.jpg	1073.jpg	9	15	1	y	1	0	967.93	0.76	0.66	85.47808	84.01104	0.96793
MRI_faces_136	1	2	4	1	19	91.01221	2094.jpg	1060.jpg	48	53	1	b	2	1	855.76	0.34	0.26	92.37937	91.01221	0.85576
MRI_faces_136	1	2	4	1	20	96.01315	2181.jpg	2229.jpg	12	11	0	b	1	0	971.82	0.69	0.69	97.49686	96.01315	0.97182
MRI_faces_136	1	2	4	1	21	99.01368	1050.jpg	2149.jpg	47	51	0	b	2	0	963.27	0.34	0.28	100.4807	99.01368	0.96327
MRI_faces_136	1	2	4	1	22	105.0147	1216.jpg	2039.jpg	18	16	0	b	1	0	796.25	0.61	0.65	106.3152	105.0147	0.79625
MRI_faces_136	1	2	4	1	23	109.0154	2045.jpg	1262.jpg	54	44	1	b	2	1	914.58	0.25	0.37	110.4324	109.0154	0.91458
MRI_faces_136	1	2	4	1	24	121.0176	1202.jpg	2248.jpg	14	7	1	b	1	1	834.38	0.67	0.8	122.3512	121.0176	0.83438
MRI_faces_136	1	2	4	1	25	124.018	2043.jpg	2248.jpg	8	7	1	b	1	1	961.98	0.79	0.8	125.4851	124.018	0.96198
MRI_faces_136	1	2	4	1	26	127.0186	1073.jpg	1202.jpg	15	14	0	b	1	0	744.36	0.66	0.67	128.2689	127.0186	0.74436
MRI_faces_136	1	2	4	1	27	131.0193	2039.jpg	2248.jpg	16	7	1	b	1	1	936.73	0.65	0.8	132.4606	131.0193	0.93673
MRI_faces_136	1	2	4	1	28	137.0203	2194.jpg	2149.jpg	50	51	0	y	2	1	852.73	0.3	0.28	138.3774	137.0203	0.85273
MRI_faces_136	1	2	4	1	29	140.0208	2212.jpg	2209.jpg	9	10	1	b	1	1	948.2	0.76	0.73	141.4711	140.0208	0.9482
MRI_faces_136	1	2	4	1	30	149.0224	1191.jpg	2110.jpg	5	56	1	b	4	1	962.53	0.82	0.16	150.4776	149.0224	0.96253
MRI_faces_136	1	2	4	1	31	153.0231	2229.jpg	2063.jpg	11	13	1	b	1	1	1024.83	0.69	0.68	154.5442	153.0231	1.02483
MRI_faces_136	1	2	4	1	32	157.0238	1060.jpg	2149.jpg	53	51	0	b	2	0	1070.17	0.26	0.28	158.5942	157.0238	1.07017
MRI_faces_136	1	2	4	1	33	160.0243	2041.jpg	2010.jpg	45	46	0	y	2	1	1346.7	0.36	0.35	161.861	160.0243	1.3467
MRI_faces_136	1	2	4	1	34	163.0248	1073.jpg	2039.jpg	15	16	0	b	1	0	871.18	0.66	0.65	164.3943	163.0248	0.87118
MRI_faces_136	1	2	4	1	35	173.011	2063.jpg	2212.jpg	13	9	0	y	1	1	1221.98	0.68	0.76	174.7445	173.011	1.22198
MRI_faces_136	1	2	4	1	36	177.0111	1060.jpg	1127.jpg	53	49	0	y	2	1	1080.88	0.26	0.31	178.5946	177.0111	1.08088
MRI_faces_136	1	2	4	1	37	185.0121	1127.jpg	2194.jpg	49	50	1	b	2	1	991.93	0.31	0.3	186.5124	185.0121	0.99193
MRI_faces_136	1	2	4	1	38	188.0147	2149.jpg	1150.jpg	51	52	1	y	2	0	1054.27	0.28	0.27	189.578	188.0147	1.05427
