subjectID	scanner	order	block	run	trial	onsettime	ImageLeft	ImageRight	bidIndexLeft	bidIndexRight	IsleftGo	Response	PairType	Outcome	RT	bidLeft	bidRight	ixationTime	onset	duration
MRI_faces_103	1	1	2	1	1	2.01523	1019.jpg	1191.jpg	45	46	1	y	2	0	1192.75	0.31	0.3	3.712143	2.01523	1.19275
MRI_faces_103	1	1	2	1	2	6.016035	1192.jpg	1017.jpg	54	52	0	b	2	0	1250.94	0.23	0.24	7.766379	6.016035	1.25094
MRI_faces_103	1	1	2	1	3	9.016428	2125.jpg	2181.jpg	9	13	0	y	1	1	1043.54	0.79	0.75	10.56122	9.016428	1.04354
MRI_faces_103	1	1	2	1	4	14.01731	1246.jpg	1173.jpg	51	50	0	b	2	0	1331.65	0.25	0.25	15.85115	14.01731	1.33165
MRI_faces_103	1	1	2	1	5	17.01789	2181.jpg	2039.jpg	13	14	1	y	1	0	1254.08	0.75	0.69	18.76841	17.01789	1.25408
MRI_faces_103	1	1	2	1	6	20.01844	1173.jpg	1150.jpg	50	49	1	y	2	0	1194.54	0.25	0.26	21.71167	20.01844	1.19454
MRI_faces_103	1	1	2	1	7	34.02096	2181.jpg	2209.jpg	13	11	1	y	1	0	1217.05	0.75	0.77	35.738	34.02096	1.21705
MRI_faces_103	1	1	2	1	8	38.02161	2149.jpg	2229.jpg	17	10	0	b	1	0	893.37	0.65	0.78	39.41177	38.02161	0.89337
MRI_faces_103	1	1	2	1	9	42.01164	1191.jpg	1027.jpg	46	44	0	b	2	0	854.33	0.3	0.32	43.37267	42.01164	0.85433
MRI_faces_103	1	1	2	1	10	45.0116	1150.jpg	1017.jpg	49	52	0	b	2	0	835.39	0.26	0.24	46.35658	45.0116	0.83539
MRI_faces_103	1	1	2	1	11	48.01171	1192.jpg	1052.jpg	54	47	0	b	2	0	992.24	0.23	0.27	49.51188	48.01171	0.99224
MRI_faces_103	1	1	2	1	12	53.01176	2181.jpg	2149.jpg	13	17	1	y	1	0	884.22	0.75	0.65	54.39533	53.01176	0.88422
MRI_faces_103	1	1	2	1	13	56.01186	2006.jpg	2125.jpg	15	9	1	y	1	0	1130.1	0.67	0.79	57.64533	56.01186	1.1301
MRI_faces_103	1	1	2	1	14	66.01193	1007.jpg	1246.jpg	53	51	1	y	2	0	1309.03	0.23	0.25	67.82893	66.01193	1.30903
MRI_faces_103	1	1	2	1	15	72.01204	2039.jpg	2006.jpg	14	15	0	b	1	0	1271.94	0.69	0.67	73.77886	72.01204	1.27194
MRI_faces_103	1	1	2	1	16	75.01212	2218.jpg	2006.jpg	16	15	0	b	1	0	932.84	0.65	0.67	76.44558	75.01212	0.93284
MRI_faces_103	1	1	2	1	17	79.01211	1017.jpg	1146.jpg	52	43	1	y	2	0	1153.85	0.24	0.34	80.66263	79.01211	1.15385
MRI_faces_103	1	1	2	1	18	84.01305	1027.jpg	1226.jpg	44	48	1	b	2	1	1360.93	0.32	0.26	85.87984	84.01305	1.36093
MRI_faces_103	1	1	2	1	19	91.01419	1027.jpg	1192.jpg	44	54	1	y	2	0	1156.79	0.32	0.23	92.67919	91.01419	1.15679
MRI_faces_103	1	1	2	1	20	96.01485	2089.jpg	2209.jpg	18	11	1	b	1	1	935.13	0.64	0.77	97.44891	96.01485	0.93513
MRI_faces_103	1	1	2	1	21	99.01561	1150.jpg	1007.jpg	49	53	0	x	2	999	999000	0.26	0.23	101.0161	99.01561	999
MRI_faces_103	1	1	2	1	22	105.0167	2209.jpg	1210.jpg	11	7	0	y	1	1	1233.28	0.77	0.8	106.7505	105.0167	1.23328
MRI_faces_103	1	1	2	1	23	109.0173	2125.jpg	2229.jpg	9	10	0	y	1	1	894.66	0.79	0.78	110.4128	109.0173	0.89466
MRI_faces_103	1	1	2	1	24	121.0195	1210.jpg	2039.jpg	7	14	1	b	1	1	827.53	0.8	0.69	122.3464	121.0195	0.82753
MRI_faces_103	1	1	2	1	25	124.02	1007.jpg	1226.jpg	53	48	1	b	2	1	1185.99	0.23	0.26	125.7039	124.02	1.18599
MRI_faces_103	1	1	2	1	26	127.0205	1246.jpg	1017.jpg	51	52	0	b	2	0	1079.48	0.25	0.24	128.5963	127.0205	1.07948
MRI_faces_103	1	1	2	1	27	131.0213	2006.jpg	2149.jpg	15	17	1	y	1	0	661.71	0.67	0.65	132.1798	131.0213	0.66171
MRI_faces_103	1	1	2	1	28	137.013	1226.jpg	1017.jpg	48	52	0	x	2	999	999000	0.26	0.24	139.0131	137.013	999
MRI_faces_103	1	1	2	1	29	140.0227	1192.jpg	1019.jpg	54	45	0	b	2	0	985.24	0.23	0.31	141.5065	140.0227	0.98524
MRI_faces_103	1	1	2	1	30	149.0131	2209.jpg	2229.jpg	11	10	0	y	1	1	1164.86	0.77	0.78	150.6799	149.0131	1.16486
MRI_faces_103	1	1	2	1	31	153.0132	1210.jpg	2218.jpg	7	16	1	y	1	0	1010.82	0.8	0.65	154.5301	153.0132	1.01082
MRI_faces_103	1	1	2	1	32	157.0132	2149.jpg	2024.jpg	17	12	0	b	1	0	1080.79	0.65	0.75	158.5967	157.0132	1.08079
MRI_faces_103	1	1	2	1	33	160.0138	1052.jpg	1191.jpg	47	46	1	y	2	0	1069.2	0.27	0.3	161.5801	160.0138	1.0692
MRI_faces_103	1	1	2	1	34	163.0133	2089.jpg	2039.jpg	18	14	1	y	1	0	1370.68	0.64	0.69	164.8801	163.0133	1.37068
MRI_faces_103	1	1	2	1	35	173.0134	2063.jpg	2024.jpg	8	12	0	b	1	0	1194.55	0.8	0.75	174.7136	173.0134	1.19455
MRI_faces_103	1	1	2	1	36	177.0135	1192.jpg	1173.jpg	54	50	0	b	2	0	1167.45	0.23	0.25	178.6803	177.0135	1.16745
MRI_faces_103	1	1	2	1	37	185.0139	2118.jpg	2110.jpg	6	56	1	b	4	1	1060.07	0.81	0.22	186.581	185.0139	1.06007
MRI_faces_103	1	1	2	1	38	188.017	2094.jpg	1262.jpg	5	55	1	b	4	1	807	0.82	0.23	189.3148	188.017	0.807
