subjectID	scanner	order	block	run	trial	onsettime	ImageLeft	ImageRight	bidIndexLeft	bidIndexRight	IsleftGo	Response	PairType	Outcome	RT	bidLeft	bidRight	ixationTime	onset	duration
MRI_faces_101	1	1	1	2	1	2.014657	1216.jpg	2006.jpg	13	14	1	b	1	1	1264.96	0.74	0.73	3.78244	2.014657	1.26496
MRI_faces_101	1	1	1	2	2	6.014733	1146.jpg	2110.jpg	49	52	0	y	2	1	837.9	0.28	0.25	7.360713	6.014733	0.8379
MRI_faces_101	1	1	1	2	3	9.014761	1031.jpg	1050.jpg	10	17	1	b	1	1	791.89	0.76	0.7	10.31489	9.014761	0.79189
MRI_faces_101	1	1	1	2	4	14.01479	2043.jpg	1031.jpg	11	10	0	y	1	1	820.86	0.74	0.76	15.33169	14.01479	0.82086
MRI_faces_101	1	1	1	2	5	17.01483	1127.jpg	1052.jpg	44	43	1	b	2	1	767.82	0.3	0.31	18.28178	17.01483	0.76782
MRI_faces_101	1	1	1	2	6	20.01486	1183.jpg	2118.jpg	55	5	0	y	4	1	781.73	0.18	0.83	21.29845	20.01486	0.78173
MRI_faces_101	1	1	1	2	7	34.01525	1210.jpg	1255.jpg	45	48	1	b	2	1	971.39	0.3	0.28	35.48239	34.01525	0.97139
MRI_faces_101	1	1	1	2	8	38.01596	1216.jpg	2043.jpg	13	11	1	b	1	1	811.69	0.74	0.74	39.33302	38.01596	0.81169
MRI_faces_101	1	1	1	2	9	42.01846	2041.jpg	2043.jpg	12	11	1	b	1	1	859.17	0.74	0.74	43.38221	42.01846	0.85917
MRI_faces_101	1	1	1	2	10	45.01724	2094.jpg	2006.jpg	18	14	1	b	1	1	791.42	0.68	0.73	46.31547	45.01724	0.79142
MRI_faces_101	1	1	1	2	11	48.0192	2006.jpg	1031.jpg	14	10	0	y	1	1	932.44	0.73	0.76	49.45143	48.0192	0.93244
MRI_faces_101	1	1	1	2	12	53.01865	2110.jpg	1255.jpg	52	48	1	b	2	1	916.02	0.25	0.28	54.43567	53.01865	0.91602
MRI_faces_101	1	1	1	2	13	56.01893	2153.jpg	2006.jpg	7	14	1	b	1	1	783.7	0.8	0.73	57.30289	56.01893	0.7837
MRI_faces_101	1	1	1	2	14	66.02098	1146.jpg	2155.jpg	49	53	0	y	2	1	857.66	0.28	0.22	67.37135	66.02098	0.85766
MRI_faces_101	1	1	1	2	15	72.02194	2015.jpg	1216.jpg	16	13	0	b	1	0	993.7	0.72	0.74	73.51579	72.02194	0.9937
MRI_faces_101	1	1	1	2	16	75.02251	2094.jpg	2015.jpg	18	16	1	b	1	1	837.14	0.68	0.72	76.35614	75.02251	0.83714
MRI_faces_101	1	1	1	2	17	79.02314	1204.jpg	2110.jpg	51	52	0	y	2	1	854.49	0.26	0.25	80.37351	79.02314	0.85449
MRI_faces_101	1	1	1	2	18	84.01582	1146.jpg	1210.jpg	49	45	0	y	2	1	863.81	0.28	0.3	85.38268	84.01582	0.86381
MRI_faces_101	1	1	1	2	19	91.01597	2053.jpg	2153.jpg	8	7	0	y	1	1	908.69	0.78	0.8	92.43271	91.01597	0.90869
MRI_faces_101	1	1	1	2	20	96.01604	1192.jpg	2194.jpg	47	54	1	b	2	1	762.59	0.28	0.19	97.28288	96.01604	0.76259
MRI_faces_101	1	1	1	2	21	99.01602	1226.jpg	1262.jpg	46	50	0	y	2	1	794.65	0.28	0.26	100.3162	99.01602	0.79465
MRI_faces_101	1	1	1	2	22	105.0161	1052.jpg	1192.jpg	43	47	0	y	2	1	920.49	0.31	0.28	106.4331	105.0161	0.92049
MRI_faces_101	1	1	1	2	23	109.0162	1262.jpg	1204.jpg	50	51	1	b	2	1	890.42	0.26	0.26	110.4122	109.0162	0.89042
MRI_faces_101	1	1	1	2	24	121.0164	1226.jpg	1192.jpg	46	47	0	y	2	1	883.25	0.28	0.28	122.3999	121.0164	0.88325
MRI_faces_101	1	1	1	2	25	124.0164	1035.jpg	1216.jpg	9	13	0	b	1	0	837.26	0.76	0.74	125.3499	124.0164	0.83726
MRI_faces_101	1	1	1	2	26	127.0164	2118.jpg	1150.jpg	5	56	1	b	4	1	1075.18	0.83	0.17	128.5986	127.0164	1.07518
MRI_faces_101	1	1	1	2	27	131.0164	1204.jpg	1210.jpg	51	45	0	y	2	1	728.23	0.26	0.3	132.25	131.0164	0.72823
MRI_faces_101	1	1	1	2	28	137.0166	2194.jpg	1210.jpg	54	45	0	y	2	1	639.03	0.19	0.3	138.1503	137.0166	0.63903
MRI_faces_101	1	1	1	2	29	140.0172	2041.jpg	2053.jpg	12	8	1	b	1	1	987.49	0.74	0.78	141.5008	140.0172	0.98749
MRI_faces_101	1	1	1	2	30	149.0188	1226.jpg	2155.jpg	46	53	0	y	2	1	737.84	0.28	0.22	150.2524	149.0188	0.73784
MRI_faces_101	1	1	1	2	31	153.0194	1262.jpg	1052.jpg	50	43	1	b	2	1	928.23	0.26	0.31	154.4502	153.0194	0.92823
MRI_faces_101	1	1	1	2	32	157.0201	2053.jpg	2212.jpg	8	15	0	y	1	1	885.61	0.78	0.73	158.4038	157.0201	0.88561
MRI_faces_101	1	1	1	2	33	160.0206	2041.jpg	2015.jpg	12	16	1	b	1	1	1068.01	0.74	0.72	161.5877	160.0206	1.06801
MRI_faces_101	1	1	1	2	34	163.0212	2043.jpg	2094.jpg	11	18	0	y	1	1	881.4	0.74	0.68	164.4049	163.0212	0.8814
MRI_faces_101	1	1	1	2	35	173.0229	1210.jpg	1052.jpg	45	43	1	b	2	1	819.78	0.3	0.31	174.3399	173.0229	0.81978
MRI_faces_101	1	1	1	2	36	177.0236	2094.jpg	1050.jpg	18	17	1	b	1	1	859.04	0.68	0.7	178.3739	177.0236	0.85904
MRI_faces_101	1	1	1	2	37	185.0172	1192.jpg	1204.jpg	47	51	1	b	2	1	827.45	0.28	0.26	186.3507	185.0172	0.82745
MRI_faces_101	1	1	1	2	38	188.0255	2015.jpg	1031.jpg	16	10	0	y	1	1	1157.11	0.72	0.76	189.676	188.0255	1.15711
