subjectID	scanner	order	block	run	trial	onsettime	ImageLeft	ImageRight	bidIndexLeft	bidIndexRight	IsleftGo	Response	PairType	Outcome	RT	bidLeft	bidRight	ixationTime	onset	duration
MRI_faces_102	1	2	1	1	1	2.012678	1019.jpg	1192.jpg	43	47	1	y	2	0	1222.56	0.35	0.29	3.747178	2.012678	1.22256
MRI_faces_102	1	2	1	1	2	9.012877	1035.jpg	1262.jpg	7	11	0	b	1	0	1006.37	0.79	0.73	10.52965	9.012877	1.00637
MRI_faces_102	1	2	1	1	3	22.01435	1192.jpg	2149.jpg	47	46	0	y	2	1	1039.89	0.29	0.29	23.56317	22.01435	1.03989
MRI_faces_102	1	2	1	1	4	26.01702	2153.jpg	1216.jpg	12	16	0	b	1	0	873.23	0.72	0.68	27.39658	26.01702	0.87323
MRI_faces_102	1	2	1	1	5	31.0159	1027.jpg	1013.jpg	48	45	1	b	2	1	1046.36	0.28	0.29	32.56631	31.0159	1.04636
MRI_faces_102	1	2	1	1	6	34.01663	1173.jpg	1130.jpg	54	44	1	y	2	0	995.63	0.21	0.35	35.51683	34.01663	0.99563
MRI_faces_102	1	2	1	1	7	39.01736	2153.jpg	2015.jpg	12	14	0	b	1	0	1262.9	0.72	0.7	40.78442	39.01736	1.2629
MRI_faces_102	1	2	1	1	8	43.01805	1130.jpg	1127.jpg	44	51	0	b	2	0	1308.22	0.35	0.24	44.83025	43.01805	1.30822
MRI_faces_102	1	2	1	1	9	52.01969	1019.jpg	1013.jpg	43	45	1	y	2	0	1166.56	0.35	0.29	53.68682	52.01969	1.16656
MRI_faces_102	1	2	1	1	10	57.02053	2010.jpg	2089.jpg	8	15	1	b	1	1	1187.72	0.77	0.68	58.70431	57.02053	1.18772
MRI_faces_102	1	2	1	1	11	61.02116	2181.jpg	2248.jpg	9	13	1	y	1	0	1216.09	0.76	0.72	62.73833	61.02116	1.21609
MRI_faces_102	1	2	1	1	12	68.02236	2015.jpg	2212.jpg	14	10	1	y	1	0	1003.88	0.7	0.75	69.52273	68.02236	1.00388
MRI_faces_102	1	2	1	1	13	72.02313	2212.jpg	2181.jpg	10	9	0	y	1	1	1069.11	0.75	0.76	73.59013	72.02313	1.06911
MRI_faces_102	1	2	1	1	14	78.02412	1246.jpg	1114.jpg	55	6	0	y	4	1	960.13	0.21	0.82	79.48055	78.02412	0.96013
MRI_faces_102	1	2	1	1	15	83.01384	2212.jpg	1031.jpg	10	17	0	b	1	0	891.42	0.75	0.67	84.41405	83.01384	0.89142
MRI_faces_102	1	2	1	1	16	87.01394	1192.jpg	1027.jpg	47	48	0	y	2	1	847.32	0.29	0.28	88.36418	87.01394	0.84732
MRI_faces_102	1	2	1	1	17	90.01397	2181.jpg	2153.jpg	9	12	1	b	1	1	1330.28	0.76	0.72	91.84746	90.01397	1.33028
MRI_faces_102	1	2	1	1	18	93.01394	1019.jpg	2045.jpg	43	50	1	y	2	0	948.32	0.35	0.24	94.46414	93.01394	0.94832
MRI_faces_102	1	2	1	1	19	97.01409	2089.jpg	1216.jpg	15	16	0	y	1	1	1087.16	0.68	0.68	98.61135	97.01409	1.08716
MRI_faces_102	1	2	1	1	20	110.0142	2015.jpg	2248.jpg	14	13	1	y	1	0	1115.02	0.7	0.72	111.631	110.0142	1.11502
MRI_faces_102	1	2	1	1	21	114.0144	1035.jpg	2015.jpg	7	14	0	b	1	0	1471.91	0.79	0.7	115.9809	114.0144	1.47191
MRI_faces_102	1	2	1	1	22	117.0143	1127.jpg	2045.jpg	51	50	1	y	2	0	786.99	0.24	0.24	118.2979	117.0143	0.78699
MRI_faces_102	1	2	1	1	23	122.0151	1019.jpg	1060.jpg	43	52	1	y	2	0	832.13	0.35	0.24	123.3488	122.0151	0.83213
MRI_faces_102	1	2	1	1	24	125.0156	2153.jpg	1262.jpg	12	11	0	b	1	0	815.62	0.72	0.73	126.3327	125.0156	0.81562
MRI_faces_102	1	2	1	1	25	129.0164	1150.jpg	1027.jpg	53	48	0	y	2	1	770.84	0.22	0.28	130.2833	129.0164	0.77084
MRI_faces_102	1	2	1	1	26	135.0174	2010.jpg	1035.jpg	8	7	1	b	1	1	1090.86	0.77	0.79	136.6147	135.0174	1.09086
MRI_faces_102	1	2	1	1	27	138.0178	1052.jpg	1192.jpg	49	47	1	b	2	1	1187.47	0.28	0.29	139.7018	138.0178	1.18747
MRI_faces_102	1	2	1	1	28	142.0187	1262.jpg	2212.jpg	11	10	1	y	1	0	775.59	0.73	0.75	143.2981	142.0187	0.77559
MRI_faces_102	1	2	1	1	29	147.0194	1013.jpg	1127.jpg	45	51	0	y	2	1	1047.79	0.29	0.24	148.5699	147.0194	1.04779
MRI_faces_102	1	2	1	1	30	151.0202	2149.jpg	2045.jpg	46	50	1	y	2	0	934.03	0.29	0.24	152.4539	151.0202	0.93403
MRI_faces_102	1	2	1	1	31	163.0222	1191.jpg	1262.jpg	18	11	0	y	1	1	1066	0.66	0.73	164.5893	163.0222	1.066
MRI_faces_102	1	2	1	1	32	169.0233	1052.jpg	1130.jpg	49	44	1	y	2	0	1015.92	0.28	0.35	170.5403	169.0233	1.01592
MRI_faces_102	1	2	1	1	33	172.0239	2089.jpg	2181.jpg	15	9	0	b	1	0	1291.36	0.68	0.76	173.8151	172.0239	1.29136
MRI_faces_102	1	2	1	1	34	176.0245	2149.jpg	1130.jpg	46	44	1	y	2	0	925.71	0.29	0.35	177.4486	176.0245	0.92571
MRI_faces_102	1	2	1	1	35	179.0151	1246.jpg	2118.jpg	55	5	0	y	4	1	914.12	0.21	0.85	180.4319	179.0151	0.91412
MRI_faces_102	1	2	1	1	36	182.0255	1150.jpg	1052.jpg	53	49	0	y	2	1	1037.74	0.22	0.28	183.5593	182.0255	1.03774
MRI_faces_102	1	2	1	1	37	185.0151	1031.jpg	2089.jpg	17	15	1	y	1	0	1214.12	0.67	0.68	186.732	185.0151	1.21412
MRI_faces_102	1	2	1	1	38	188.0266	1013.jpg	2149.jpg	45	46	0	y	2	1	853.7	0.29	0.29	189.3769	188.0266	0.8537
