subjectID	scanner	order	block	run	trial	onsettime	ImageLeft	ImageRight	bidIndexLeft	bidIndexRight	IsleftGo	Response	PairType	Outcome	RT	bidLeft	bidRight	ixationTime	onset	duration
MRI_faces_107	1	1	2	2	1	2.032158	1191.jpg	1246.jpg	44	54	1	b	2	1	755.06	0.31	0.21	3.28267	2.032158	0.75506
MRI_faces_107	1	1	2	2	2	5.032728	2194.jpg	1246.jpg	52	54	1	b	2	1	546.49	0.22	0.21	6.073526	5.032728	0.54649
MRI_faces_107	1	1	2	2	3	8.033218	1216.jpg	1052.jpg	46	53	0	y	2	1	545.04	0.25	0.22	9.073506	8.033218	0.54504
MRI_faces_107	1	1	2	2	4	13.03405	2125.jpg	2041.jpg	10	14	1	b	1	1	666.18	0.79	0.7	14.19032	13.03405	0.66618
MRI_faces_107	1	1	2	2	5	18.0235	1183.jpg	1017.jpg	45	48	1	b	2	1	746.72	0.31	0.23	19.27376	18.0235	0.74672
MRI_faces_107	1	1	2	2	6	25.02361	1226.jpg	1150.jpg	50	51	1	b	2	1	1336.62	0.22	0.22	26.87003	25.02361	1.33662
MRI_faces_107	1	1	2	2	7	29.02366	1204.jpg	1226.jpg	43	50	0	y	2	1	861.59	0.32	0.22	30.39057	29.02366	0.86159
MRI_faces_107	1	1	2	2	8	32.02372	2024.jpg	2181.jpg	12	9	1	y	1	0	801.5	0.77	0.81	33.32388	32.02372	0.8015
MRI_faces_107	1	1	2	2	9	39.02384	1262.jpg	2248.jpg	16	13	0	y	1	1	1075.4	0.66	0.71	40.60735	39.02384	1.0754
MRI_faces_107	1	1	2	2	10	43.02384	1127.jpg	2039.jpg	56	6	0	y	4	1	589.38	0.18	0.84	44.12297	43.02384	0.58938
MRI_faces_107	1	1	2	2	11	46.02398	2125.jpg	1262.jpg	10	16	1	b	1	1	595.24	0.79	0.66	47.12407	46.02398	0.59524
MRI_faces_107	1	1	2	2	12	50.02397	2015.jpg	2045.jpg	8	15	0	b	1	0	890.25	0.82	0.66	51.42435	50.02397	0.89025
MRI_faces_107	1	1	2	2	13	54.02457	2024.jpg	2015.jpg	12	8	1	b	1	1	768.65	0.77	0.82	55.29173	54.02457	0.76865
MRI_faces_107	1	1	2	2	14	59.02554	1262.jpg	2153.jpg	16	7	0	y	1	1	621.69	0.66	0.83	60.14251	59.02554	0.62169
MRI_faces_107	1	1	2	2	15	63.02619	2015.jpg	2128.jpg	8	18	0	b	1	0	906.04	0.82	0.64	64.42661	63.02619	0.90604
MRI_faces_107	1	1	2	2	16	67.02692	2212.jpg	2125.jpg	11	10	0	y	1	1	583.31	0.78	0.79	68.11058	67.02692	0.58331
MRI_faces_107	1	1	2	2	17	70.02746	1127.jpg	2010.jpg	56	5	0	y	4	1	1048.77	0.18	0.85	71.57783	70.02746	1.04877
MRI_faces_107	1	1	2	2	18	80.0291	2015.jpg	2248.jpg	8	13	0	y	1	1	742.12	0.82	0.71	81.27446	80.0291	0.74212
MRI_faces_107	1	1	2	2	19	84.02989	1262.jpg	2024.jpg	16	12	0	y	1	1	799.34	0.66	0.77	85.33032	84.02989	0.79934
MRI_faces_107	1	1	2	2	20	87.03034	2125.jpg	2181.jpg	10	9	1	b	1	1	607.89	0.79	0.81	88.14141	87.03034	0.60789
MRI_faces_107	1	1	2	2	21	90.03092	2181.jpg	2128.jpg	9	18	0	y	1	1	802.3	0.81	0.64	91.33129	90.03092	0.8023
MRI_faces_107	1	1	2	2	22	94.03157	1183.jpg	1216.jpg	45	46	1	y	2	0	661.64	0.31	0.25	95.19152	94.03157	0.66164
MRI_faces_107	1	1	2	2	23	100.0326	1150.jpg	1052.jpg	51	53	0	y	2	1	1071.58	0.22	0.22	101.5998	100.0326	1.07158
MRI_faces_107	1	1	2	2	24	103.0331	1191.jpg	1216.jpg	44	46	1	y	2	0	1059.14	0.31	0.25	104.5915	103.0331	1.05914
MRI_faces_107	1	1	2	2	25	106.0248	1262.jpg	2045.jpg	16	15	0	y	1	1	565.45	0.66	0.66	107.0917	106.0248	0.56545
MRI_faces_107	1	1	2	2	26	110.0248	1183.jpg	1145.jpg	45	49	1	b	2	1	1123.38	0.31	0.23	111.6516	110.0248	1.12338
MRI_faces_107	1	1	2	2	27	113.0248	2194.jpg	1150.jpg	52	51	1	y	2	0	779.4	0.22	0.22	114.3084	113.0248	0.7794
MRI_faces_107	1	1	2	2	28	116.0248	1017.jpg	1052.jpg	48	53	0	b	2	0	1206.38	0.23	0.22	117.7358	116.0248	1.20638
MRI_faces_107	1	1	2	2	29	130.0251	1150.jpg	1191.jpg	51	44	0	y	2	1	743.16	0.22	0.31	131.2751	130.0251	0.74316
MRI_faces_107	1	1	2	2	30	140.0252	2041.jpg	2128.jpg	14	18	0	y	1	1	693.07	0.7	0.64	141.2253	140.0252	0.69307
MRI_faces_107	1	1	2	2	31	146.0252	1226.jpg	1216.jpg	50	46	1	y	2	0	607	0.22	0.25	147.1251	146.0252	0.607
MRI_faces_107	1	1	2	2	32	150.0254	1183.jpg	1150.jpg	45	51	1	b	2	1	983.86	0.31	0.22	151.5089	150.0254	0.98386
MRI_faces_107	1	1	2	2	33	156.0258	1216.jpg	2164.jpg	46	47	0	y	2	1	783.43	0.25	0.24	157.3096	156.0258	0.78343
MRI_faces_107	1	1	2	2	34	160.0264	1114.jpg	2128.jpg	17	18	0	y	1	1	890.82	0.64	0.64	161.4102	160.0264	0.89082
MRI_faces_107	1	1	2	2	35	166.0274	2164.jpg	1204.jpg	47	43	1	b	2	1	739.79	0.24	0.32	167.2613	166.0274	0.73979
MRI_faces_107	1	1	2	2	36	178.0295	1183.jpg	1204.jpg	45	43	1	y	2	0	787.71	0.31	0.32	179.3132	178.0295	0.78771
MRI_faces_107	1	1	2	2	37	181.03	2045.jpg	1114.jpg	15	17	1	b	1	1	450.2	0.66	0.64	181.9803	181.03	0.4502
MRI_faces_107	1	1	2	2	38	188.0313	2045.jpg	2212.jpg	15	11	1	y	1	0	974.91	0.66	0.78	189.4983	188.0313	0.97491
