subjectID	scanner	order	block	run	trial	onsettime	ImageLeft	ImageRight	bidIndexLeft	bidIndexRight	IsleftGo	Response	PairType	Outcome	RT	bidLeft	bidRight	ixationTime	onset	duration
MRI_faces_103	1	1	3	2	1	2.012881	2229.jpg	2063.jpg	10	8	1	x	1	999	999000	0.78	0.8	4.0138	2.012881	999
MRI_faces_103	1	1	3	2	2	5.01301	2039.jpg	2006.jpg	14	15	0	b	1	0	932.44	0.69	0.67	6.446453	5.01301	0.93244
MRI_faces_103	1	1	3	2	3	8.013096	1019.jpg	1226.jpg	45	48	1	b	2	1	1177.36	0.31	0.26	9.696487	8.013096	1.17736
MRI_faces_103	1	1	3	2	4	13.01311	2039.jpg	2181.jpg	14	13	0	b	1	0	1193.3	0.69	0.75	14.7133	13.01311	1.1933
MRI_faces_103	1	1	3	2	5	18.01313	1226.jpg	1017.jpg	48	52	0	b	2	0	1427.3	0.26	0.24	19.94661	18.01313	1.4273
MRI_faces_103	1	1	3	2	6	25.01326	1210.jpg	2125.jpg	7	9	1	b	1	1	729.18	0.8	0.79	26.24676	25.01326	0.72918
MRI_faces_103	1	1	3	2	7	29.01338	1173.jpg	1226.jpg	50	48	1	b	2	1	1175.07	0.25	0.26	30.6964	29.01338	1.17507
MRI_faces_103	1	1	3	2	8	32.01339	1246.jpg	1007.jpg	51	53	0	b	2	0	1239.05	0.25	0.23	33.74694	32.01339	1.23905
MRI_faces_103	1	1	3	2	9	39.01442	2039.jpg	1210.jpg	14	7	0	y	1	1	1131.02	0.69	0.8	40.64814	39.01442	1.13102
MRI_faces_103	1	1	3	2	10	43.0151	2218.jpg	2229.jpg	16	10	0	b	1	0	1265.33	0.65	0.78	44.78226	43.0151	1.26533
MRI_faces_103	1	1	3	2	11	46.01574	2118.jpg	1262.jpg	6	55	1	b	4	1	1122.69	0.81	0.23	47.6327	46.01574	1.12269
MRI_faces_103	1	1	3	2	12	50.01609	1226.jpg	1027.jpg	48	44	0	y	2	1	1033.34	0.26	0.32	51.55005	50.01609	1.03334
MRI_faces_103	1	1	3	2	13	54.01702	1146.jpg	1052.jpg	43	47	0	x	2	999	999000	0.34	0.27	56.01761	54.01702	999
MRI_faces_103	1	1	3	2	14	59.01804	2149.jpg	2024.jpg	17	12	0	b	1	0	687.4	0.65	0.75	60.20162	59.01804	0.6874
MRI_faces_103	1	1	3	2	15	63.01866	1210.jpg	2209.jpg	7	11	1	y	1	0	1233.76	0.8	0.77	64.75242	63.01866	1.23376
MRI_faces_103	1	1	3	2	16	67.01939	2125.jpg	2229.jpg	9	10	0	y	1	1	880.03	0.79	0.78	68.39742	67.01939	0.88003
MRI_faces_103	1	1	3	2	17	70.01988	1017.jpg	1191.jpg	52	46	1	y	2	0	1136.56	0.24	0.3	71.65364	70.01988	1.13656
MRI_faces_103	1	1	3	2	18	80.02167	2024.jpg	2063.jpg	12	8	1	x	1	999	999000	0.75	0.8	82.02194	80.02167	999
MRI_faces_103	1	1	3	2	19	84.02237	1192.jpg	1052.jpg	54	47	0	x	2	999	999000	0.23	0.27	86.02258	84.02237	999
MRI_faces_103	1	1	3	2	20	87.01419	2024.jpg	2039.jpg	12	14	1	y	1	0	1135.24	0.75	0.69	88.65661	87.01419	1.13524
MRI_faces_103	1	1	3	2	21	90.02341	1052.jpg	1191.jpg	47	46	1	y	2	0	1026.02	0.27	0.3	91.54777	90.02341	1.02602
MRI_faces_103	1	1	3	2	22	94.0241	1150.jpg	1027.jpg	49	44	0	y	2	1	1163.34	0.26	0.32	95.68083	94.0241	1.16334
MRI_faces_103	1	1	3	2	23	100.0142	2218.jpg	2089.jpg	16	18	0	b	1	0	1232.18	0.65	0.64	101.7478	100.0142	1.23218
MRI_faces_103	1	1	3	2	24	103.0144	1019.jpg	1192.jpg	45	54	1	x	2	999	999000	0.31	0.23	105.0146	103.0144	999
MRI_faces_103	1	1	3	2	25	106.0144	2089.jpg	2149.jpg	18	17	1	y	1	0	746.98	0.64	0.65	107.2646	106.0144	0.74698
MRI_faces_103	1	1	3	2	26	110.0145	1027.jpg	1146.jpg	44	43	1	b	2	1	898.97	0.32	0.34	111.4148	110.0145	0.89897
MRI_faces_103	1	1	3	2	27	113.0145	1173.jpg	1192.jpg	50	54	1	y	2	0	865.9	0.25	0.23	114.3814	113.0145	0.8659
MRI_faces_103	1	1	3	2	28	116.0147	1150.jpg	1019.jpg	49	45	0	x	2	999	999000	0.26	0.31	118.0147	116.0147	999
MRI_faces_103	1	1	3	2	29	130.0149	2229.jpg	2149.jpg	10	17	1	y	1	0	705.55	0.78	0.65	131.2149	130.0149	0.70555
MRI_faces_103	1	1	3	2	30	140.0169	2209.jpg	2229.jpg	11	10	0	b	1	0	1138.53	0.77	0.78	141.6492	140.0169	1.13853
MRI_faces_103	1	1	3	2	31	146.0172	1017.jpg	1192.jpg	52	54	1	y	2	0	1092.23	0.24	0.23	147.6003	146.0172	1.09223
MRI_faces_103	1	1	3	2	32	150.0176	2209.jpg	2006.jpg	11	15	0	b	1	0	1147.88	0.77	0.67	151.6676	150.0176	1.14788
MRI_faces_103	1	1	3	2	33	156.0184	1246.jpg	1052.jpg	51	47	0	y	2	1	1326.09	0.25	0.27	157.8487	156.0184	1.32609
MRI_faces_103	1	1	3	2	34	160.019	2181.jpg	2125.jpg	13	9	1	b	1	1	1246.43	0.75	0.79	161.7654	160.019	1.24643
MRI_faces_103	1	1	3	2	35	166.0221	1019.jpg	1146.jpg	45	43	1	b	2	1	1066.36	0.31	0.34	167.587	166.0221	1.06636
MRI_faces_103	1	1	3	2	36	178.0221	2218.jpg	2181.jpg	16	13	0	x	1	999	999000	0.65	0.75	180.0226	178.0221	999
MRI_faces_103	1	1	3	2	37	181.0155	1146.jpg	1173.jpg	43	50	0	b	2	0	1053.89	0.34	0.25	182.5732	181.0155	1.05389
MRI_faces_103	1	1	3	2	38	188.0162	2094.jpg	1262.jpg	5	55	1	b	4	1	919.25	0.82	0.23	189.4409	188.0162	0.91925
