subjectID	scanner	order	block	run	trial	onsettime	ImageLeft	ImageRight	bidIndexLeft	bidIndexRight	IsleftGo	Response	PairType	Outcome	RT	bidLeft	bidRight	ixationTime	onset	duration
MRI_faces_121	1	1	3	1	1	2.012794	1035.jpg	1150.jpg	5	55	1	b	4	1	851.96	0.86	0.29	3.363114	2.012794	0.85196
MRI_faces_121	1	1	3	1	2	5.012839	1146.jpg	2229.jpg	14	12	0	y	1	1	750.9	0.68	0.69	6.263042	5.012839	0.7509
MRI_faces_121	1	1	3	1	3	8.012843	1226.jpg	2164.jpg	44	54	1	y	2	0	874.89	0.35	0.29	9.396087	8.012843	0.87489
MRI_faces_121	1	1	3	1	4	13.01336	2041.jpg	2112.jpg	51	50	0	y	2	1	909.38	0.3	0.3	14.43049	13.01336	0.90938
MRI_faces_121	1	1	3	1	5	18.01618	2164.jpg	2155.jpg	54	47	0	b	2	0	838.57	0.29	0.34	19.34786	18.01618	0.83857
MRI_faces_121	1	1	3	1	6	25.01526	2058.jpg	2164.jpg	52	54	1	y	2	0	745.48	0.3	0.29	26.26588	25.01526	0.74548
MRI_faces_121	1	1	3	1	7	29.01592	2110.jpg	1145.jpg	11	10	0	y	1	1	680.83	0.71	0.72	30.19989	29.01592	0.68083
MRI_faces_121	1	1	3	1	8	32.01662	1246.jpg	2112.jpg	43	50	0	y	2	1	744.12	0.38	0.3	33.26353	32.01662	0.74412
MRI_faces_121	1	1	3	1	9	39.0177	2015.jpg	2058.jpg	48	52	0	b	2	0	876.06	0.33	0.3	40.39694	39.0177	0.87606
MRI_faces_121	1	1	3	1	10	43.01843	2181.jpg	2043.jpg	8	15	0	y	1	1	843.31	0.77	0.66	44.36354	43.01843	0.84331
MRI_faces_121	1	1	3	1	11	46.01911	2194.jpg	2155.jpg	49	47	0	b	2	0	785.63	0.32	0.34	47.30291	46.01911	0.78563
MRI_faces_121	1	1	3	1	12	50.01985	1183.jpg	2164.jpg	45	54	1	b	2	1	806.89	0.35	0.29	51.32021	50.01985	0.80689
MRI_faces_121	1	1	3	1	13	54.02033	2110.jpg	2229.jpg	11	12	0	y	1	1	711.42	0.71	0.69	55.23041	54.02033	0.71142
MRI_faces_121	1	1	3	1	14	59.01358	2041.jpg	1226.jpg	51	44	0	y	2	1	736.16	0.3	0.35	60.2552	59.01358	0.73616
MRI_faces_121	1	1	3	1	15	63.01371	1262.jpg	2110.jpg	18	11	1	b	1	1	967.07	0.6	0.71	64.48054	63.01371	0.96707
MRI_faces_121	1	1	3	1	16	67.01377	2110.jpg	1031.jpg	11	7	0	y	1	1	615.97	0.71	0.78	68.1307	67.01377	0.61597
MRI_faces_121	1	1	3	1	17	70.01376	2110.jpg	2043.jpg	11	15	0	y	1	1	859.99	0.71	0.66	71.38076	70.01376	0.85999
MRI_faces_121	1	1	3	1	18	80.01395	1191.jpg	2043.jpg	9	15	0	b	1	0	913.79	0.77	0.66	81.43066	80.01395	0.91379
MRI_faces_121	1	1	3	1	19	84.01406	1262.jpg	1073.jpg	18	17	1	y	1	0	765.68	0.6	0.61	85.28075	84.01406	0.76568
MRI_faces_121	1	1	3	1	20	87.01399	2194.jpg	1183.jpg	49	45	0	y	2	1	883.75	0.32	0.35	88.39761	87.01399	0.88375
MRI_faces_121	1	1	3	1	21	90.01409	2164.jpg	2089.jpg	54	53	0	y	2	1	675.65	0.29	0.3	91.19378	90.01409	0.67565
MRI_faces_121	1	1	3	1	22	94.0142	2112.jpg	2015.jpg	50	48	1	b	2	1	1257.54	0.3	0.33	95.7643	94.0142	1.25754
MRI_faces_121	1	1	3	1	23	100.0142	2089.jpg	2015.jpg	53	48	1	y	2	0	655.51	0.3	0.33	101.1645	100.0142	0.65551
MRI_faces_121	1	1	3	1	24	103.0143	1191.jpg	1145.jpg	9	10	0	b	1	0	859.47	0.77	0.72	104.3794	103.0143	0.85947
MRI_faces_121	1	1	3	1	25	106.0142	1145.jpg	1073.jpg	10	17	1	y	1	0	705.51	0.72	0.61	107.2144	106.0142	0.70551
MRI_faces_121	1	1	3	1	26	110.0144	2229.jpg	2181.jpg	12	8	1	b	1	1	1280.32	0.69	0.77	111.7979	110.0144	1.28032
MRI_faces_121	1	1	3	1	27	113.0144	2155.jpg	2015.jpg	47	48	1	y	2	0	747.39	0.34	0.33	114.2646	113.0144	0.74739
MRI_faces_121	1	1	3	1	28	116.0146	2058.jpg	2041.jpg	52	51	1	y	2	0	836.1	0.3	0.3	117.3485	116.0146	0.8361
MRI_faces_121	1	1	3	1	29	130.0171	2229.jpg	1073.jpg	12	17	1	b	1	1	973.61	0.69	0.61	131.4842	130.0171	0.97361
MRI_faces_121	1	1	3	1	30	140.0189	2058.jpg	2045.jpg	52	46	1	b	2	1	990.81	0.3	0.34	141.5025	140.0189	0.99081
MRI_faces_121	1	1	3	1	31	146.0199	2194.jpg	2089.jpg	49	53	0	y	2	1	868.87	0.32	0.3	147.387	146.0199	0.86887
MRI_faces_121	1	1	3	1	32	150.0206	2153.jpg	1204.jpg	6	56	1	b	4	1	1019.12	0.82	0.25	151.5378	150.0206	1.01912
MRI_faces_121	1	1	3	1	33	156.0217	2058.jpg	2194.jpg	52	49	1	y	2	0	990.04	0.3	0.32	157.5053	156.0217	0.99004
MRI_faces_121	1	1	3	1	34	160.0223	1262.jpg	2181.jpg	18	8	1	y	1	0	1082.45	0.6	0.77	161.5986	160.0223	1.08245
MRI_faces_121	1	1	3	1	35	166.0154	1073.jpg	1255.jpg	17	13	0	y	1	1	836.35	0.61	0.69	167.3572	166.0154	0.83635
MRI_faces_121	1	1	3	1	36	178.0176	2229.jpg	1052.jpg	12	16	1	b	1	1	857.18	0.69	0.63	179.3758	178.0176	0.85718
MRI_faces_121	1	1	3	1	37	181.0153	1052.jpg	1145.jpg	16	10	0	y	1	1	749.49	0.63	0.72	182.2654	181.0153	0.74949
MRI_faces_121	1	1	3	1	38	188.017	2043.jpg	1052.jpg	15	16	1	b	1	1	973.69	0.66	0.63	189.4943	188.017	0.97369
