subjectID	scanner	order	block	run	trial	onsettime	ImageLeft	ImageRight	bidIndexLeft	bidIndexRight	IsleftGo	Response	PairType	Outcome	RT	bidLeft	bidRight	ixationTime	onset	duration
MRI_faces_130	1	2	4	1	1	2.013143	1060.jpg	1150.jpg	44	51	0	y	2	1	818.34	0.36	0.29	3.331081	2.013143	0.81834
MRI_faces_130	1	2	4	1	2	9.014297	1080.jpg	1060.jpg	43	44	1	y	2	0	964.17	0.36	0.36	10.48133	9.014297	0.96417
MRI_faces_130	1	2	4	1	3	22.01657	1060.jpg	1146.jpg	44	46	0	y	2	1	988.93	0.36	0.33	23.50861	22.01657	0.98893
MRI_faces_130	1	2	4	1	4	26.0173	1210.jpg	1204.jpg	10	17	0	b	1	0	839.17	0.72	0.62	27.35863	26.0173	0.83917
MRI_faces_130	1	2	4	1	5	31.01826	1080.jpg	2164.jpg	43	47	1	y	2	0	886.24	0.36	0.33	32.40191	31.01826	0.88624
MRI_faces_130	1	2	4	1	6	34.01868	1080.jpg	2229.jpg	43	50	1	y	2	0	1091.8	0.36	0.31	35.60879	34.01868	1.0918
MRI_faces_130	1	2	4	1	7	39.01961	2015.jpg	1019.jpg	16	18	1	b	1	1	881.85	0.64	0.61	40.40321	39.01961	0.88185
MRI_faces_130	1	2	4	1	8	43.02024	1114.jpg	2043.jpg	8	13	1	b	1	1	916.22	0.78	0.65	44.43729	43.02024	0.91622
MRI_faces_130	1	2	4	1	9	52.02185	1146.jpg	2164.jpg	46	47	1	b	2	1	725.62	0.33	0.33	53.24234	52.02185	0.72562
MRI_faces_130	1	2	4	1	10	57.00898	1150.jpg	2045.jpg	51	45	1	y	2	0	928.49	0.29	0.33	58.44248	57.00898	0.92849
MRI_faces_130	1	2	4	1	11	61.00905	2229.jpg	1146.jpg	50	46	0	b	2	0	1021.41	0.31	0.33	62.54245	61.00905	1.02141
MRI_faces_130	1	2	4	1	12	68.00916	1191.jpg	2212.jpg	7	9	0	b	1	0	958.3	0.79	0.76	69.47592	68.00916	0.9583
MRI_faces_130	1	2	4	1	13	72.00919	1202.jpg	1114.jpg	15	8	0	y	1	1	835.28	0.64	0.78	73.34247	72.00919	0.83528
MRI_faces_130	1	2	4	1	14	78.00972	2089.jpg	1204.jpg	12	17	0	b	1	0	1114.75	0.7	0.62	79.62677	78.00972	1.11475
MRI_faces_130	1	2	4	1	15	83.01063	1183.jpg	2045.jpg	48	45	1	b	2	1	937.84	0.32	0.33	84.45944	83.01063	0.93784
MRI_faces_130	1	2	4	1	16	87.01133	2045.jpg	2041.jpg	45	49	0	b	2	0	975.14	0.33	0.31	88.49485	87.01133	0.97514
MRI_faces_130	1	2	4	1	17	90.01176	1210.jpg	2063.jpg	10	11	0	b	1	0	1203.7	0.72	0.72	91.71227	90.01176	1.2037
MRI_faces_130	1	2	4	1	18	93.01234	1262.jpg	1183.jpg	52	48	0	y	2	1	1005.14	0.27	0.32	94.52632	93.01234	1.00514
MRI_faces_130	1	2	4	1	19	97.01299	1150.jpg	2229.jpg	51	50	1	y	2	0	970.52	0.29	0.31	98.48013	97.01299	0.97052
MRI_faces_130	1	2	4	1	20	110.0153	2164.jpg	1183.jpg	47	48	0	b	2	0	1078.16	0.33	0.32	111.5991	110.0153	1.07816
MRI_faces_130	1	2	4	1	21	114.016	2063.jpg	1202.jpg	11	15	1	y	1	0	1070.48	0.72	0.64	115.5831	114.016	1.07048
MRI_faces_130	1	2	4	1	22	117.0166	1019.jpg	1204.jpg	18	17	0	y	1	1	1144.9	0.61	0.62	118.6599	117.0166	1.1449
MRI_faces_130	1	2	4	1	23	122.0174	1204.jpg	1202.jpg	17	15	1	y	1	0	1160.05	0.62	0.64	123.6769	122.0174	1.16005
MRI_faces_130	1	2	4	1	24	125.0179	1150.jpg	1192.jpg	51	53	1	b	2	1	1209.56	0.29	0.27	126.7268	125.0179	1.20956
MRI_faces_130	1	2	4	1	25	129.0186	2110.jpg	2164.jpg	54	47	1	y	2	0	1100.84	0.25	0.33	130.619	129.0186	1.10084
MRI_faces_130	1	2	4	1	26	135.0196	2110.jpg	1060.jpg	54	44	1	b	2	1	1142.8	0.25	0.36	136.6602	135.0196	1.1428
MRI_faces_130	1	2	4	1	27	138.0202	2089.jpg	2212.jpg	12	9	0	y	1	1	1220.29	0.7	0.76	139.7373	138.0202	1.22029
MRI_faces_130	1	2	4	1	28	142.0209	1173.jpg	2181.jpg	55	5	0	y	4	1	957.61	0.25	0.82	143.4769	142.0209	0.95761
MRI_faces_130	1	2	4	1	29	147.0218	2229.jpg	2110.jpg	50	54	0	b	2	0	1078.64	0.31	0.25	148.5937	147.0218	1.07864
MRI_faces_130	1	2	4	1	30	151.0104	1226.jpg	2181.jpg	56	5	0	y	4	1	1001.09	0.24	0.82	152.5104	151.0104	1.00109
MRI_faces_130	1	2	4	1	31	163.0104	1191.jpg	2015.jpg	7	16	0	b	1	0	938.11	0.79	0.64	164.4582	163.0104	0.93811
MRI_faces_130	1	2	4	1	32	169.0105	1114.jpg	1210.jpg	8	10	1	b	1	1	897.88	0.78	0.72	170.4107	169.0105	0.89788
MRI_faces_130	1	2	4	1	33	172.0131	2053.jpg	1191.jpg	14	7	1	y	1	0	945.36	0.64	0.79	173.4607	172.0131	0.94536
MRI_faces_130	1	2	4	1	34	176.0123	2063.jpg	2043.jpg	11	13	1	b	1	1	1274.14	0.72	0.65	177.794	176.0123	1.27414
MRI_faces_130	1	2	4	1	35	179.0107	2015.jpg	1210.jpg	16	10	1	y	1	0	1293.78	0.64	0.72	180.811	179.0107	1.29378
MRI_faces_130	1	2	4	1	36	182.0113	1262.jpg	1146.jpg	52	46	0	y	2	1	984.13	0.27	0.33	183.4949	182.0113	0.98413
MRI_faces_130	1	2	4	1	37	185.0118	2053.jpg	1210.jpg	14	10	1	y	1	0	951.66	0.64	0.72	186.4622	185.0118	0.95166
MRI_faces_130	1	2	4	1	38	188.0151	1019.jpg	1114.jpg	18	8	0	y	1	1	1207.4	0.61	0.78	189.7276	188.0151	1.2074
