subjectID	scanner	order	block	run	trial	onsettime	ImageLeft	ImageRight	bidIndexLeft	bidIndexRight	IsleftGo	Response	PairType	Outcome	RT	bidLeft	bidRight	ixationTime	onset	duration
MRI_faces_126	1	2	1	2	1	2.027933	2153.jpg	1035.jpg	7	9	0	b	1	0	761.23	0.81	0.72	3.284476	2.027933	0.76123
MRI_faces_126	1	2	1	2	2	6.028024	1150.jpg	1191.jpg	51	50	1	y	2	0	951.08	0.2	0.25	7.478099	6.028024	0.95108
MRI_faces_126	1	2	1	2	3	13.02816	1216.jpg	2112.jpg	13	8	0	y	1	1	713.97	0.7	0.74	14.23538	13.02816	0.71397
MRI_faces_126	1	2	1	2	4	16.02817	1027.jpg	1073.jpg	16	15	1	y	1	0	1354.96	0.65	0.67	17.87827	16.02817	1.35496
MRI_faces_126	1	2	1	2	5	21.02822	1073.jpg	2112.jpg	15	8	0	y	1	1	897.9	0.67	0.74	22.42009	21.02822	0.8979
MRI_faces_126	1	2	1	2	6	31.02838	2053.jpg	2209.jpg	11	10	1	b	1	1	1386.75	0.71	0.72	32.9119	31.02838	1.38675
MRI_faces_126	1	2	1	2	7	34.02843	1127.jpg	1204.jpg	52	49	0	b	2	0	938.67	0.2	0.25	35.46196	34.02843	0.93867
MRI_faces_126	1	2	1	2	8	37.02845	1173.jpg	1255.jpg	43	47	1	y	2	0	921.63	0.42	0.39	38.44528	37.02845	0.92163
MRI_faces_126	1	2	1	2	9	46.02863	1246.jpg	1150.jpg	44	51	0	b	2	0	979.49	0.41	0.2	47.50774	46.02863	0.97949
MRI_faces_126	1	2	1	2	10	49.02866	2110.jpg	1246.jpg	54	44	1	y	2	0	784.48	0.18	0.41	50.31213	49.02866	0.78448
MRI_faces_126	1	2	1	2	11	59.02883	2110.jpg	1127.jpg	54	52	1	y	2	0	1360.28	0.18	0.2	60.87894	59.02883	1.36028
MRI_faces_126	1	2	1	2	12	64.02898	2053.jpg	1216.jpg	11	13	1	b	1	1	910.13	0.71	0.7	65.42904	64.02898	0.91013
MRI_faces_126	1	2	1	2	13	69.029	1127.jpg	1150.jpg	52	51	0	b	2	0	912.12	0.2	0.2	70.42912	69.029	0.91212
MRI_faces_126	1	2	1	2	14	77.01299	1035.jpg	1007.jpg	9	18	1	y	1	0	917.15	0.72	0.59	78.44601	77.01299	0.91715
MRI_faces_126	1	2	1	2	15	84.02921	1073.jpg	2053.jpg	15	11	0	b	1	0	836.92	0.67	0.71	85.36448	84.02921	0.83692
MRI_faces_126	1	2	1	2	16	88.02927	1210.jpg	1007.jpg	17	18	1	y	1	0	853.86	0.65	0.59	89.38175	88.02927	0.85386
MRI_faces_126	1	2	1	2	17	91.01526	2153.jpg	1027.jpg	7	16	0	b	1	0	692.85	0.81	0.65	92.2157	91.01526	0.69285
MRI_faces_126	1	2	1	2	18	96.02936	2094.jpg	1035.jpg	12	9	0	b	1	0	714.76	0.71	0.72	97.23312	96.02936	0.71476
MRI_faces_126	1	2	1	2	19	99.02938	1150.jpg	1255.jpg	51	47	1	y	2	0	792.72	0.2	0.39	100.317	99.02938	0.79272
MRI_faces_126	1	2	1	2	20	107.0295	1246.jpg	2039.jpg	44	46	0	y	2	1	950.65	0.41	0.4	108.4797	107.0295	0.95065
MRI_faces_126	1	2	1	2	21	113.0192	1127.jpg	1183.jpg	52	48	0	b	2	0	1108.96	0.2	0.36	114.6362	113.0192	1.10896
MRI_faces_126	1	2	1	2	22	118.0296	1204.jpg	1246.jpg	49	44	1	y	2	0	732.55	0.25	0.41	119.2537	118.0296	0.73255
MRI_faces_126	1	2	1	2	23	123.0208	2112.jpg	2153.jpg	8	7	1	y	1	0	1152.29	0.74	0.81	124.6798	123.0208	1.15229
MRI_faces_126	1	2	1	2	24	126.0214	2164.jpg	1204.jpg	45	49	0	b	2	0	774.77	0.41	0.25	127.2966	126.0214	0.77477
MRI_faces_126	1	2	1	2	25	140.0299	2039.jpg	1255.jpg	46	47	1	b	2	1	714.24	0.4	0.39	141.2409	140.0299	0.71424
MRI_faces_126	1	2	1	2	26	143.0244	1127.jpg	2039.jpg	52	46	0	b	2	0	981.76	0.2	0.4	144.5081	143.0244	0.98176
MRI_faces_126	1	2	1	2	27	147.0251	1031.jpg	2209.jpg	14	10	1	b	1	1	795.96	0.7	0.72	148.3135	147.0251	0.79596
MRI_faces_126	1	2	1	2	28	151.0258	1255.jpg	1204.jpg	47	49	0	b	2	0	1025.32	0.39	0.25	152.5469	151.0258	1.02532
MRI_faces_126	1	2	1	2	29	154.0263	2110.jpg	1191.jpg	54	50	1	y	2	0	1093.82	0.18	0.25	155.6136	154.0263	1.09382
MRI_faces_126	1	2	1	2	30	157.0268	1183.jpg	1246.jpg	48	44	1	y	2	0	855.28	0.36	0.41	158.3804	157.0268	0.85528
MRI_faces_126	1	2	1	2	31	163.0279	2094.jpg	2053.jpg	12	11	0	b	1	0	745.24	0.71	0.71	164.2638	163.0279	0.74524
MRI_faces_126	1	2	1	2	32	169.0289	1073.jpg	1031.jpg	15	14	0	y	1	1	739.24	0.67	0.7	170.2638	169.0289	0.73924
MRI_faces_126	1	2	1	2	33	172.0137	1216.jpg	1035.jpg	13	9	0	b	1	0	880.46	0.7	0.72	173.3973	172.0137	0.88046
MRI_faces_126	1	2	1	2	34	175.0135	2039.jpg	2058.jpg	46	53	1	b	2	1	1401.65	0.4	0.19	176.9304	175.0135	1.40165
MRI_faces_126	1	2	1	2	35	179.0137	1226.jpg	2125.jpg	56	6	0	y	4	1	1021.43	0.16	0.81	180.5477	179.0137	1.02143
MRI_faces_126	1	2	1	2	36	182.0146	1027.jpg	1007.jpg	16	18	1	b	1	1	1358.55	0.65	0.59	183.8817	182.0146	1.35855
MRI_faces_126	1	2	1	2	37	185.0151	1210.jpg	2209.jpg	17	10	1	y	1	0	876.02	0.65	0.72	186.3987	185.0151	0.87602
MRI_faces_126	1	2	1	2	38	188.0171	1019.jpg	2063.jpg	55	5	0	y	4	1	994.05	0.18	0.81	189.5159	188.0171	0.99405
