subjectID	scanner	order	block	run	trial	onsettime	ImageLeft	ImageRight	bidIndexLeft	bidIndexRight	IsleftGo	Response	PairType	Outcome	RT	bidLeft	bidRight	ixationTime	onset	duration
MRI_faces_138	1	2	2	2	1	2.032653	1192.jpg	1262.jpg	53	51	0	y	2	1	1002.11	0.23	0.25	3.53343	2.032653	1.00211
MRI_faces_138	1	2	2	2	2	5.032677	2053.jpg	1114.jpg	12	17	0	b	1	0	1107.08	0.71	0.65	6.64176	5.032677	1.10708
MRI_faces_138	1	2	2	2	3	8.032733	1216.jpg	1246.jpg	45	54	0	b	2	0	1200.02	0.32	0.22	9.732831	8.032733	1.20002
MRI_faces_138	1	2	2	2	4	13.03288	2015.jpg	2218.jpg	18	16	0	b	1	0	874.87	0.64	0.67	14.40973	13.03288	0.87487
MRI_faces_138	1	2	2	2	5	18.03293	1150.jpg	1019.jpg	44	49	0	b	2	0	1270.82	0.32	0.29	19.79963	18.03293	1.27082
MRI_faces_138	1	2	2	2	6	25.03304	2053.jpg	2063.jpg	12	11	0	b	1	0	932.72	0.71	0.72	26.4665	25.03304	0.93272
MRI_faces_138	1	2	2	2	7	29.03309	1114.jpg	2006.jpg	17	7	1	b	1	1	852.64	0.65	0.81	30.38314	29.03309	0.85264
MRI_faces_138	1	2	2	2	8	32.03312	2112.jpg	2015.jpg	8	18	1	b	1	1	663.63	0.77	0.64	33.19637	32.03312	0.66363
MRI_faces_138	1	2	2	2	9	39.03326	1013.jpg	2212.jpg	56	6	0	y	4	1	832.49	0.19	0.82	40.36662	39.03326	0.83249
MRI_faces_138	1	2	2	2	10	43.03327	2063.jpg	2039.jpg	11	15	1	b	1	1	896.48	0.72	0.7	44.43175	43.03327	0.89648
MRI_faces_138	1	2	2	2	11	46.03338	1127.jpg	2058.jpg	43	47	1	y	2	0	1101.38	0.33	0.31	47.63348	46.03338	1.10138
MRI_faces_138	1	2	2	2	12	50.03338	1216.jpg	1146.jpg	45	48	0	y	2	1	805.38	0.32	0.3	51.33343	50.03338	0.80538
MRI_faces_138	1	2	2	2	13	54.03352	1114.jpg	1031.jpg	17	10	1	b	1	1	954.24	0.65	0.75	55.48364	54.03352	0.95424
MRI_faces_138	1	2	2	2	14	59.03419	2063.jpg	2015.jpg	11	18	1	b	1	1	1317.56	0.72	0.64	60.85128	59.03419	1.31756
MRI_faces_138	1	2	2	2	15	63.03487	1146.jpg	1027.jpg	48	52	1	b	2	1	882.89	0.3	0.25	64.41703	63.03487	0.88289
MRI_faces_138	1	2	2	2	16	67.0336	2112.jpg	2006.jpg	8	7	1	b	1	1	694.15	0.77	0.81	68.2192	67.0336	0.69415
MRI_faces_138	1	2	2	2	17	70.03365	1202.jpg	1150.jpg	46	44	1	b	2	1	1028.11	0.31	0.32	71.55313	70.03365	1.02811
MRI_faces_138	1	2	2	2	18	80.03379	2039.jpg	1114.jpg	15	17	0	y	1	1	751.97	0.7	0.65	81.28386	80.03379	0.75197
MRI_faces_138	1	2	2	2	19	84.03384	1173.jpg	2181.jpg	55	5	0	y	4	1	889.89	0.2	0.82	85.42218	84.03384	0.88989
MRI_faces_138	1	2	2	2	20	87.0339	1127.jpg	1216.jpg	43	45	1	y	2	0	1349.86	0.33	0.32	88.88384	87.0339	1.34986
MRI_faces_138	1	2	2	2	21	90.034	1146.jpg	1150.jpg	48	44	1	b	2	1	1069.75	0.3	0.32	91.60073	90.034	1.06975
MRI_faces_138	1	2	2	2	22	94.03399	1007.jpg	1019.jpg	50	49	0	y	2	1	1177.77	0.28	0.29	95.70739	94.03399	1.17777
MRI_faces_138	1	2	2	2	23	100.0339	2063.jpg	1035.jpg	11	13	1	b	1	1	958.79	0.72	0.71	101.4916	100.0339	0.95879
MRI_faces_138	1	2	2	2	24	103.0342	1019.jpg	2058.jpg	49	47	1	y	2	0	1047.55	0.29	0.31	104.5756	103.0342	1.04755
MRI_faces_138	1	2	2	2	25	106.0342	1035.jpg	1114.jpg	13	17	0	y	1	1	704.55	0.71	0.65	107.2343	106.0342	0.70455
MRI_faces_138	1	2	2	2	26	110.0342	2112.jpg	2039.jpg	8	15	1	b	1	1	743.54	0.77	0.7	111.2768	110.0342	0.74354
MRI_faces_138	1	2	2	2	27	113.0342	2053.jpg	2125.jpg	12	9	0	b	1	0	828.51	0.71	0.76	114.3606	113.0342	0.82851
MRI_faces_138	1	2	2	2	28	116.0344	1202.jpg	2058.jpg	46	47	1	y	2	0	1140.4	0.31	0.31	117.6678	116.0344	1.1404
MRI_faces_138	1	2	2	2	29	130.0345	2058.jpg	1146.jpg	47	48	0	y	2	1	1086.22	0.31	0.3	131.6179	130.0345	1.08622
MRI_faces_138	1	2	2	2	30	140.0347	1019.jpg	1192.jpg	49	53	1	y	2	0	1092.08	0.29	0.23	141.6182	140.0347	1.09208
MRI_faces_138	1	2	2	2	31	146.0348	1007.jpg	1127.jpg	50	43	0	y	2	1	1075.95	0.28	0.33	147.6015	146.0348	1.07595
MRI_faces_138	1	2	2	2	32	150.0348	2218.jpg	2039.jpg	16	15	1	y	1	0	848.95	0.67	0.7	151.368	150.0348	0.84895
MRI_faces_138	1	2	2	2	33	156.0345	1192.jpg	1202.jpg	53	46	0	y	2	1	1129.28	0.23	0.31	157.6517	156.0345	1.12928
MRI_faces_138	1	2	2	2	34	160.0352	1114.jpg	2015.jpg	17	18	1	b	1	1	821.59	0.65	0.64	161.3522	160.0352	0.82159
MRI_faces_138	1	2	2	2	35	166.0351	1246.jpg	1007.jpg	54	50	1	y	2	0	1118.63	0.22	0.28	167.6533	166.0351	1.11863
MRI_faces_138	1	2	2	2	36	178.0218	1031.jpg	2112.jpg	10	8	0	b	1	0	1370.97	0.75	0.77	179.9053	178.0218	1.37097
MRI_faces_138	1	2	2	2	37	181.0353	1216.jpg	1019.jpg	45	49	0	y	2	1	1103.49	0.32	0.29	182.6354	181.0353	1.10349
MRI_faces_138	1	2	2	2	38	188.0355	2006.jpg	2125.jpg	7	9	0	y	1	1	800.29	0.81	0.76	189.3355	188.0355	0.80029
