subjectID	scanner	order	block	run	trial	onsettime	ImageLeft	ImageRight	bidIndexLeft	bidIndexRight	IsleftGo	Response	PairType	Outcome	RT	bidLeft	bidRight	ixationTime	onset	duration
MRI_faces_124	1	2	2	1	1	2.015186	1192.jpg	1017.jpg	52	54	0	b	2	0	1022.09	0.24	0.22	3.545263	2.015186	1.02209
MRI_faces_124	1	2	2	1	2	9.015273	2015.jpg	2181.jpg	8	10	1	b	1	1	849.99	0.79	0.75	10.36549	9.015273	0.84999
MRI_faces_124	1	2	2	1	3	22.0154	2063.jpg	2181.jpg	11	10	1	y	1	0	904.88	0.72	0.75	23.41567	22.0154	0.90488
MRI_faces_124	1	2	2	1	4	26.01563	2024.jpg	2248.jpg	56	6	0	y	4	1	1046.66	0.21	0.81	27.56611	26.01563	1.04666
MRI_faces_124	1	2	2	1	5	31.01653	1204.jpg	1246.jpg	45	51	0	b	2	0	966.76	0.32	0.28	32.4837	31.01653	0.96676
MRI_faces_124	1	2	2	1	6	34.01937	1192.jpg	1191.jpg	52	49	0	b	2	0	830.91	0.24	0.29	35.35085	34.01937	0.83091
MRI_faces_124	1	2	2	1	7	39.01799	1013.jpg	1017.jpg	50	54	0	b	2	0	943.33	0.28	0.22	40.46582	39.01799	0.94333
MRI_faces_124	1	2	2	1	8	43.01871	2010.jpg	1013.jpg	46	50	1	y	2	0	1069.55	0.31	0.28	44.58569	43.01871	1.06955
MRI_faces_124	1	2	2	1	9	52.02017	1050.jpg	2229.jpg	17	18	1	b	1	1	1164.1	0.64	0.63	53.68735	52.02017	1.1641
MRI_faces_124	1	2	2	1	10	57.02113	1246.jpg	1192.jpg	51	52	1	y	2	0	1046.14	0.28	0.24	58.56604	57.02113	1.04614
MRI_faces_124	1	2	2	1	11	61.02174	2010.jpg	1080.jpg	46	47	1	y	2	0	1064.53	0.31	0.3	62.58901	61.02174	1.06453
MRI_faces_124	1	2	2	1	12	68.02296	1246.jpg	1013.jpg	51	50	1	y	2	0	965.33	0.28	0.28	69.48999	68.02296	0.96533
MRI_faces_124	1	2	2	1	13	72.02371	2041.jpg	1050.jpg	15	17	0	y	1	1	904.57	0.68	0.64	73.42402	72.02371	0.90457
MRI_faces_124	1	2	2	1	14	78.02474	1204.jpg	1073.jpg	45	48	0	y	2	1	1063.55	0.32	0.29	79.58312	78.02474	1.06355
MRI_faces_124	1	2	2	1	15	83.01637	2212.jpg	2015.jpg	12	8	0	y	1	1	827.9	0.72	0.79	84.34977	83.01637	0.8279
MRI_faces_124	1	2	2	1	16	87.01641	1017.jpg	1226.jpg	54	53	1	b	2	1	975.85	0.22	0.23	88.49988	87.01641	0.97585
MRI_faces_124	1	2	2	1	17	90.01635	1191.jpg	1080.jpg	49	47	1	y	2	0	893.93	0.29	0.3	91.41676	90.01635	0.89393
MRI_faces_124	1	2	2	1	18	93.01644	1114.jpg	1035.jpg	13	16	0	b	1	0	1203.83	0.7	0.67	94.72782	93.01644	1.20383
MRI_faces_124	1	2	2	1	19	97.01652	1226.jpg	1073.jpg	53	48	0	y	2	1	1034.77	0.23	0.29	98.55017	97.01652	1.03477
MRI_faces_124	1	2	2	1	20	110.0167	1035.jpg	2125.jpg	16	7	1	y	1	0	816.61	0.67	0.81	111.3336	110.0167	0.81661
MRI_faces_124	1	2	2	1	21	114.0168	1204.jpg	1191.jpg	45	49	0	b	2	0	842.5	0.32	0.29	115.367	114.0168	0.8425
MRI_faces_124	1	2	2	1	22	117.0168	1013.jpg	2209.jpg	50	43	0	b	2	0	1149.51	0.28	0.35	118.6669	117.0168	1.14951
MRI_faces_124	1	2	2	1	23	122.0169	1226.jpg	1246.jpg	53	51	0	y	2	1	1064.44	0.23	0.28	123.5839	122.0169	1.06444
MRI_faces_124	1	2	2	1	24	125.0169	2125.jpg	2112.jpg	7	9	0	b	1	0	1065.39	0.81	0.78	126.5838	125.0169	1.06539
MRI_faces_124	1	2	2	1	25	129.017	1114.jpg	2112.jpg	13	9	0	b	1	0	974.29	0.7	0.78	130.4838	129.017	0.97429
MRI_faces_124	1	2	2	1	26	135.018	2212.jpg	1050.jpg	12	17	0	y	1	1	1068.3	0.72	0.64	136.5852	135.018	1.0683
MRI_faces_124	1	2	2	1	27	138.0185	2041.jpg	2063.jpg	15	11	0	y	1	1	963.78	0.68	0.72	139.4857	138.0185	0.96378
MRI_faces_124	1	2	2	1	28	142.0202	2218.jpg	2041.jpg	14	15	1	b	1	1	1286.04	0.7	0.68	143.803	142.0202	1.28604
MRI_faces_124	1	2	2	1	29	147.0201	1191.jpg	1226.jpg	49	53	1	b	2	1	973.2	0.29	0.23	148.4871	147.0201	0.9732
MRI_faces_124	1	2	2	1	30	151.0208	1035.jpg	2212.jpg	16	12	1	b	1	1	1062.45	0.67	0.72	152.5842	151.0208	1.06245
MRI_faces_124	1	2	2	1	31	163.0229	1060.jpg	1073.jpg	44	48	0	y	2	1	1020.33	0.32	0.29	164.54	163.0229	1.02033
MRI_faces_124	1	2	2	1	32	169.024	2218.jpg	2212.jpg	14	12	1	y	1	0	1081.29	0.7	0.72	170.6012	169.024	1.08129
MRI_faces_124	1	2	2	1	33	172.0245	2218.jpg	2125.jpg	14	7	1	y	1	0	961.81	0.7	0.81	173.4844	172.0245	0.96181
MRI_faces_124	1	2	2	1	34	176.0252	2218.jpg	2181.jpg	14	10	1	y	1	0	828.11	0.7	0.75	177.3512	176.0252	0.82811
MRI_faces_124	1	2	2	1	35	179.0176	1114.jpg	2218.jpg	13	14	0	b	1	0	1194.68	0.7	0.7	180.7178	179.0176	1.19468
MRI_faces_124	1	2	2	1	36	182.0262	2015.jpg	2041.jpg	8	15	1	b	1	1	1058.08	0.79	0.68	183.5767	182.0262	1.05808
MRI_faces_124	1	2	2	1	37	185.0177	2153.jpg	2194.jpg	5	55	1	b	4	1	1165.55	0.82	0.22	186.6846	185.0177	1.16555
MRI_faces_124	1	2	2	1	38	188.0273	1191.jpg	1060.jpg	49	44	1	y	2	0	1054.99	0.29	0.32	189.5778	188.0273	1.05499
