subjectID	scanner	order	block	run	trial	onsettime	ImageLeft	ImageRight	bidIndexLeft	bidIndexRight	IsleftGo	Response	PairType	Outcome	RT	bidLeft	bidRight	ixationTime	onset	duration
MRI_faces_112	1	2	4	1	1	2.024355	2043.jpg	2039.jpg	16	18	1	b	1	1	1124.11	0.63	0.61	3.642134	2.024355	1.12411
MRI_faces_112	1	2	4	1	2	6.024455	1202.jpg	2212.jpg	15	11	0	y	1	1	671.98	0.64	0.69	7.191209	6.024455	0.67198
MRI_faces_112	1	2	4	1	3	9.024434	1192.jpg	2153.jpg	51	45	1	b	2	1	962.02	0.22	0.33	10.48412	9.024434	0.96202
MRI_faces_112	1	2	4	1	4	14.02443	1183.jpg	2110.jpg	47	43	0	b	2	0	988.04	0.3	0.33	15.50797	14.02443	0.98804
MRI_faces_112	1	2	4	1	5	17.02455	2128.jpg	1019.jpg	48	50	1	y	2	0	1026.89	0.28	0.27	18.54126	17.02455	1.02689
MRI_faces_112	1	2	4	1	6	20.02458	2194.jpg	2181.jpg	55	5	0	y	4	1	1053.85	0.17	0.83	21.57475	20.02458	1.05385
MRI_faces_112	1	2	4	1	7	34.02479	2194.jpg	2089.jpg	55	6	0	y	4	1	1051.65	0.17	0.81	35.57486	34.02479	1.05165
MRI_faces_112	1	2	4	1	8	38.02225	1255.jpg	2112.jpg	17	12	1	b	1	1	811.19	0.63	0.68	39.32498	38.02225	0.81119
MRI_faces_112	1	2	4	1	9	42.0229	1183.jpg	2128.jpg	47	48	0	b	2	0	1005.56	0.3	0.28	43.52504	42.0229	1.00556
MRI_faces_112	1	2	4	1	10	45.02347	2128.jpg	1127.jpg	48	44	1	b	2	1	858.97	0.28	0.33	46.37507	45.02347	0.85897
MRI_faces_112	1	2	4	1	11	48.02399	1183.jpg	1192.jpg	47	51	0	b	2	0	1066.49	0.3	0.22	49.59106	48.02399	1.06649
MRI_faces_112	1	2	4	1	12	53.00807	1255.jpg	1145.jpg	17	7	1	y	1	0	908.35	0.63	0.8	54.42522	53.00807	0.90835
MRI_faces_112	1	2	4	1	13	56.00844	1073.jpg	1183.jpg	49	47	1	y	2	0	1116.98	0.27	0.3	57.62556	56.00844	1.11698
MRI_faces_112	1	2	4	1	14	66.01045	2212.jpg	1145.jpg	11	7	1	b	1	1	715.98	0.69	0.8	67.22748	66.01045	0.71598
MRI_faces_112	1	2	4	1	15	72.0115	2112.jpg	2212.jpg	12	11	0	y	1	1	900.94	0.68	0.69	73.42544	72.0115	0.90094
MRI_faces_112	1	2	4	1	16	75.01206	2015.jpg	2063.jpg	9	13	1	y	1	0	936.38	0.74	0.67	76.45877	75.01206	0.93638
MRI_faces_112	1	2	4	1	17	79.01266	1017.jpg	2006.jpg	8	10	1	b	1	1	1022.78	0.79	0.72	80.54649	79.01266	1.02278
MRI_faces_112	1	2	4	1	18	84.01353	2112.jpg	1017.jpg	12	8	0	y	1	1	738.89	0.68	0.79	85.25897	84.01353	0.73889
MRI_faces_112	1	2	4	1	19	91.01476	1073.jpg	2153.jpg	49	45	1	b	2	1	1123.69	0.27	0.33	92.64857	91.01476	1.12369
MRI_faces_112	1	2	4	1	20	96.01572	2212.jpg	2006.jpg	11	10	1	b	1	1	979.73	0.69	0.72	97.49938	96.01572	0.97973
MRI_faces_112	1	2	4	1	21	99.0162	1255.jpg	2063.jpg	17	13	1	y	1	0	748.24	0.63	0.67	100.2666	99.0162	0.74824
MRI_faces_112	1	2	4	1	22	105.0173	2063.jpg	2043.jpg	13	16	0	b	1	0	708.18	0.67	0.63	106.2259	105.0173	0.70818
MRI_faces_112	1	2	4	1	23	109.018	2006.jpg	1255.jpg	10	17	0	b	1	0	839.46	0.72	0.63	110.3593	109.018	0.83946
MRI_faces_112	1	2	4	1	24	121.02	2153.jpg	1204.jpg	45	46	0	y	2	1	1026.43	0.33	0.33	122.5428	121.02	1.02643
MRI_faces_112	1	2	4	1	25	124.0206	1017.jpg	1145.jpg	8	7	1	b	1	1	743.85	0.79	0.8	125.2595	124.0206	0.74385
MRI_faces_112	1	2	4	1	26	127.0211	1192.jpg	1127.jpg	51	44	1	y	2	0	1059.31	0.22	0.33	128.5763	127.0211	1.05931
MRI_faces_112	1	2	4	1	27	131.0218	1127.jpg	1246.jpg	44	54	0	y	2	1	1223.61	0.33	0.18	132.7431	131.0218	1.22361
MRI_faces_112	1	2	4	1	28	137.0228	1127.jpg	2110.jpg	44	43	0	y	2	1	1223.59	0.33	0.33	138.743	137.0228	1.22359
MRI_faces_112	1	2	4	1	29	140.0233	2110.jpg	1050.jpg	43	52	1	y	2	0	1175.15	0.33	0.22	141.693	140.0233	1.17515
MRI_faces_112	1	2	4	1	30	149.0096	2006.jpg	2015.jpg	10	9	0	y	1	1	1028.79	0.72	0.74	150.5432	149.0096	1.02879
MRI_faces_112	1	2	4	1	31	153.0094	1204.jpg	1183.jpg	46	47	1	y	2	0	1275.03	0.33	0.3	154.7932	153.0094	1.27503
MRI_faces_112	1	2	4	1	32	157.0098	1127.jpg	1073.jpg	44	49	0	b	2	0	1272.63	0.33	0.27	158.7934	157.0098	1.27263
MRI_faces_112	1	2	4	1	33	160.0113	1145.jpg	2015.jpg	7	9	0	b	1	0	1145.12	0.8	0.74	161.6606	160.0113	1.14512
MRI_faces_112	1	2	4	1	34	163.0107	2110.jpg	1019.jpg	43	50	1	b	2	1	1064.75	0.33	0.27	164.5777	163.0107	1.06475
MRI_faces_112	1	2	4	1	35	173.0125	2039.jpg	1255.jpg	18	17	0	b	1	0	822.97	0.61	0.63	174.3461	173.0125	0.82297
MRI_faces_112	1	2	4	1	36	177.0131	1073.jpg	1019.jpg	49	50	1	y	2	0	1402.32	0.27	0.27	178.9269	177.0131	1.40232
MRI_faces_112	1	2	4	1	37	185.0145	1146.jpg	1073.jpg	53	49	0	b	2	0	706.9	0.19	0.27	186.2315	185.0145	0.7069
MRI_faces_112	1	2	4	1	38	188.015	2039.jpg	2015.jpg	18	9	0	b	1	0	928.44	0.61	0.74	189.4487	188.015	0.92844
