subjectID	scanner	order	block	run	trial	onsettime	ImageLeft	ImageRight	bidIndexLeft	bidIndexRight	IsleftGo	Response	PairType	Outcome	RT	bidLeft	bidRight	ixationTime	onset	duration
MRI_faces_113	1	1	2	2	1	2.032678	2209.jpg	1050.jpg	50	51	1	b	2	1	1429.21	0.24	0.24	3.958809	2.032678	1.42921
MRI_faces_113	1	1	2	2	2	9.032811	1050.jpg	2155.jpg	51	53	0	b	2	0	1171.08	0.24	0.23	10.69957	9.032811	1.17108
MRI_faces_113	1	1	2	2	3	22.03296	1127.jpg	2094.jpg	56	6	0	y	4	1	942.93	0.15	0.81	23.47785	22.03296	0.94293
MRI_faces_113	1	1	2	2	4	26.0331	1226.jpg	2209.jpg	46	50	0	b	2	0	948.79	0.29	0.24	27.48317	26.0331	0.94879
MRI_faces_113	1	1	2	2	5	31.03314	1031.jpg	1073.jpg	14	12	0	y	1	1	803.77	0.72	0.74	32.3332	31.03314	0.80377
MRI_faces_113	1	1	2	2	6	34.03313	2039.jpg	1191.jpg	45	43	1	y	2	0	869.76	0.33	0.35	35.39991	34.03313	0.86976
MRI_faces_113	1	1	2	2	7	39.03319	2041.jpg	2045.jpg	9	7	0	b	1	0	920.68	0.78	0.8	40.45002	39.03319	0.92068
MRI_faces_113	1	1	2	2	8	43.0332	2155.jpg	2218.jpg	53	48	1	y	2	0	1093.72	0.23	0.26	44.61681	43.0332	1.09372
MRI_faces_113	1	1	2	2	9	52.03333	2015.jpg	2118.jpg	11	10	0	b	1	0	1047.56	0.75	0.78	53.56665	52.03333	1.04756
MRI_faces_113	1	1	2	2	10	57.03362	1191.jpg	2155.jpg	43	53	0	b	2	0	969.26	0.35	0.23	58.50057	57.03362	0.96926
MRI_faces_113	1	1	2	2	11	61.03424	2118.jpg	1031.jpg	10	14	1	y	1	0	1157.62	0.78	0.72	62.68471	61.03424	1.15762
MRI_faces_113	1	1	2	2	12	68.03363	2045.jpg	1255.jpg	7	17	1	y	1	0	965.26	0.8	0.67	69.48591	68.03363	0.96526
MRI_faces_113	1	1	2	2	13	72.03373	2089.jpg	1073.jpg	8	12	0	y	1	1	1068.15	0.79	0.74	73.60048	72.03373	1.06815
MRI_faces_113	1	1	2	2	14	78.03371	2024.jpg	1226.jpg	47	46	1	y	2	0	982.16	0.28	0.29	79.51727	78.03371	0.98216
MRI_faces_113	1	1	2	2	15	83.03393	2006.jpg	1173.jpg	5	55	1	b	4	1	946.97	0.81	0.19	84.47185	83.03393	0.94697
MRI_faces_113	1	1	2	2	16	87.03382	2039.jpg	2149.jpg	45	49	1	b	2	1	1012.05	0.33	0.25	88.53923	87.03382	1.01205
MRI_faces_113	1	1	2	2	17	90.034	1226.jpg	2039.jpg	46	45	0	b	2	0	1371.89	0.29	0.33	91.90648	90.034	1.37189
MRI_faces_113	1	1	2	2	18	93.02315	1183.jpg	1226.jpg	52	46	1	y	2	0	668.75	0.24	0.29	94.20082	93.02315	0.66875
MRI_faces_113	1	1	2	2	19	97.03401	2039.jpg	1050.jpg	45	51	1	b	2	1	815.86	0.33	0.24	98.35081	97.03401	0.81586
MRI_faces_113	1	1	2	2	20	110.0342	2015.jpg	2153.jpg	11	13	0	y	1	1	880.71	0.75	0.73	111.4098	110.0342	0.88071
MRI_faces_113	1	1	2	2	21	114.0343	2024.jpg	2149.jpg	47	49	1	b	2	1	1379.6	0.28	0.25	115.9106	114.0343	1.3796
MRI_faces_113	1	1	2	2	22	117.0343	2153.jpg	2181.jpg	13	16	1	b	1	1	1009.61	0.73	0.68	118.5444	117.0343	1.00961
MRI_faces_113	1	1	2	2	23	122.0344	2118.jpg	2181.jpg	10	16	1	b	1	1	1000.5	0.78	0.68	123.5345	122.0344	1.0005
MRI_faces_113	1	1	2	2	24	125.0344	2110.jpg	2181.jpg	15	16	1	y	1	0	854.47	0.68	0.68	126.3846	125.0344	0.85447
MRI_faces_113	1	1	2	2	25	129.0345	2058.jpg	2039.jpg	54	45	0	y	2	1	899.42	0.2	0.33	130.4298	129.0345	0.89942
MRI_faces_113	1	1	2	2	26	135.0346	1145.jpg	2041.jpg	18	9	1	y	1	0	753.29	0.66	0.78	136.2847	135.0346	0.75329
MRI_faces_113	1	1	2	2	27	138.0311	1145.jpg	1031.jpg	18	14	1	y	1	0	799.75	0.66	0.72	139.3314	138.0311	0.79975
MRI_faces_113	1	1	2	2	28	142.0347	2218.jpg	2229.jpg	48	44	0	y	2	1	1203.22	0.26	0.34	143.7348	142.0347	1.20322
MRI_faces_113	1	1	2	2	29	147.0347	1031.jpg	2153.jpg	14	13	0	y	1	1	817.22	0.72	0.73	148.3515	147.0347	0.81722
MRI_faces_113	1	1	2	2	30	151.0347	1255.jpg	1073.jpg	17	12	0	y	1	1	818.19	0.67	0.74	152.3515	151.0347	0.81819
MRI_faces_113	1	1	2	2	31	163.035	2149.jpg	2209.jpg	49	50	0	b	2	0	1153.93	0.25	0.24	164.6857	163.035	1.15393
MRI_faces_113	1	1	2	2	32	169.035	2155.jpg	2058.jpg	53	54	1	y	2	0	977.88	0.23	0.2	170.5034	169.035	0.97788
MRI_faces_113	1	1	2	2	33	172.035	1183.jpg	2218.jpg	52	48	1	y	2	0	1146.89	0.24	0.26	173.6708	172.035	1.14689
MRI_faces_113	1	1	2	2	34	176.0351	1031.jpg	2110.jpg	14	15	0	b	1	0	784.81	0.72	0.68	177.3185	176.0351	0.78481
MRI_faces_113	1	1	2	2	35	179.0351	2218.jpg	2209.jpg	48	50	0	y	2	1	1228.75	0.26	0.24	180.7552	179.0351	1.22875
MRI_faces_113	1	1	2	2	36	182.0352	2153.jpg	1255.jpg	13	17	1	b	1	1	1024.7	0.73	0.67	183.5557	182.0352	1.0247
MRI_faces_113	1	1	2	2	37	185.0352	2181.jpg	1145.jpg	16	18	0	y	1	1	961.73	0.68	0.66	186.4895	185.0352	0.96173
MRI_faces_113	1	1	2	2	38	188.0352	2089.jpg	2045.jpg	8	7	0	b	1	0	1432.64	0.79	0.8	189.9569	188.0352	1.43264
