subjectID	scanner	order	block	run	trial	onsettime	ImageLeft	ImageRight	bidIndexLeft	bidIndexRight	IsleftGo	Response	PairType	Outcome	RT	bidLeft	bidRight	ixationTime	onset	duration
MRI_faces_114	1	2	2	2	1	2.01555	2212.jpg	2006.jpg	11	7	1	b	1	1	815.23	0.74	0.8	3.333636	2.01555	0.81523
MRI_faces_114	1	2	2	2	2	6.01632	2181.jpg	2153.jpg	10	8	0	y	1	1	1273.45	0.75	0.78	7.791137	6.01632	1.27345
MRI_faces_114	1	2	2	2	3	13.01748	1191.jpg	2240.jpg	45	54	0	b	2	0	780.29	0.35	0.25	14.29132	13.01748	0.78029
MRI_faces_114	1	2	2	2	4	16.01799	2248.jpg	2024.jpg	5	55	1	b	4	1	1188.8	0.82	0.21	17.70173	16.01799	1.1888
MRI_faces_114	1	2	2	2	5	21.01885	2089.jpg	1192.jpg	14	15	1	y	1	0	888.93	0.72	0.68	22.40806	21.01885	0.88893
MRI_faces_114	1	2	2	2	6	31.00801	1191.jpg	1183.jpg	45	46	0	b	2	0	809.76	0.35	0.33	32.32481	31.00801	0.80976
MRI_faces_114	1	2	2	2	7	34.00814	1146.jpg	2212.jpg	13	11	0	b	1	0	930.64	0.73	0.74	35.44161	34.00814	0.93064
MRI_faces_114	1	2	2	2	8	37.00807	2181.jpg	2212.jpg	10	11	0	y	1	1	1060.7	0.75	0.74	38.57487	37.00807	1.0607
MRI_faces_114	1	2	2	2	9	46.00825	2006.jpg	2153.jpg	7	8	0	x	1	999	999000	0.8	0.78	48.00852	46.00825	999
MRI_faces_114	1	2	2	2	10	49.0083	2053.jpg	2153.jpg	12	8	0	y	1	1	699.48	0.73	0.78	50.20837	49.0083	0.69948
MRI_faces_114	1	2	2	2	11	59.00888	1019.jpg	2181.jpg	9	10	1	b	1	1	913.88	0.76	0.75	60.4259	59.00888	0.91388
MRI_faces_114	1	2	2	2	12	64.00986	2112.jpg	1246.jpg	47	43	0	b	2	0	1135.92	0.32	0.37	65.64366	64.00986	1.13592
MRI_faces_114	1	2	2	2	13	69.01072	1216.jpg	2053.jpg	16	12	1	b	1	1	990.06	0.67	0.73	70.50875	69.01072	0.99006
MRI_faces_114	1	2	2	2	14	77.01209	2112.jpg	2043.jpg	47	49	0	b	2	0	875.72	0.32	0.3	78.39216	77.01209	0.87572
MRI_faces_114	1	2	2	2	15	84.01324	1210.jpg	2153.jpg	18	8	0	b	1	0	809.52	0.65	0.78	85.32553	84.01324	0.80952
MRI_faces_114	1	2	2	2	16	88.01394	2153.jpg	1146.jpg	8	13	1	y	1	0	1241.82	0.78	0.73	89.75902	88.01394	1.24182
MRI_faces_114	1	2	2	2	17	91.01451	1226.jpg	2240.jpg	44	54	0	y	2	1	1299.25	0.36	0.25	92.81491	91.01451	1.29925
MRI_faces_114	1	2	2	2	18	96.01546	2045.jpg	1204.jpg	51	50	1	x	2	999	999000	0.26	0.29	98.01581	96.01546	999
MRI_faces_114	1	2	2	2	19	99.01584	1246.jpg	1191.jpg	43	45	1	y	2	0	1097.92	0.37	0.35	100.6163	99.01584	1.09792
MRI_faces_114	1	2	2	2	20	107.0173	1246.jpg	1226.jpg	43	44	1	y	2	0	1068.46	0.37	0.36	108.5844	107.0173	1.06846
MRI_faces_114	1	2	2	2	21	113.0184	1192.jpg	2212.jpg	15	11	0	y	1	1	833.37	0.68	0.74	114.352	113.0184	0.83337
MRI_faces_114	1	2	2	2	22	118.0193	2128.jpg	1183.jpg	52	46	0	y	2	1	1056.51	0.26	0.33	119.576	118.0193	1.05651
MRI_faces_114	1	2	2	2	23	123.0093	1210.jpg	2089.jpg	18	14	0	b	1	0	893.5	0.65	0.72	124.4095	123.0093	0.8935
MRI_faces_114	1	2	2	2	24	126.0093	1019.jpg	1210.jpg	9	18	1	y	1	0	1116.48	0.76	0.65	127.6261	126.0093	1.11648
MRI_faces_114	1	2	2	2	25	140.011	2024.jpg	1073.jpg	55	6	0	y	4	1	940.73	0.21	0.81	141.4597	140.011	0.94073
MRI_faces_114	1	2	2	2	26	143.0095	2089.jpg	2053.jpg	14	12	1	b	1	1	1186.26	0.72	0.73	144.6931	143.0095	1.18626
MRI_faces_114	1	2	2	2	27	147.0096	1226.jpg	1080.jpg	44	48	0	b	2	0	1096.15	0.36	0.31	148.6098	147.0096	1.09615
MRI_faces_114	1	2	2	2	28	151.0097	1216.jpg	1192.jpg	16	15	1	y	1	0	930.11	0.67	0.68	152.4432	151.0097	0.93011
MRI_faces_114	1	2	2	2	29	154.0104	1183.jpg	2112.jpg	46	47	1	y	2	0	1013.37	0.33	0.32	155.5267	154.0104	1.01337
MRI_faces_114	1	2	2	2	30	157.0098	1192.jpg	2153.jpg	15	8	0	y	1	1	934.02	0.68	0.78	158.4432	157.0098	0.93402
MRI_faces_114	1	2	2	2	31	163.0104	2043.jpg	1226.jpg	49	44	1	b	2	1	1021.37	0.3	0.36	164.5275	163.0104	1.02137
MRI_faces_114	1	2	2	2	32	169.0115	2043.jpg	1191.jpg	49	45	1	y	2	0	1035.3	0.3	0.35	170.5451	169.0115	1.0353
MRI_faces_114	1	2	2	2	33	172.014	2240.jpg	1150.jpg	54	53	1	b	2	1	1308.78	0.25	0.26	173.8268	172.014	1.30878
MRI_faces_114	1	2	2	2	34	175.0124	2045.jpg	1191.jpg	51	45	1	y	2	0	941.37	0.26	0.35	176.4601	175.0124	0.94137
MRI_faces_114	1	2	2	2	35	179.0132	1019.jpg	1192.jpg	9	15	1	y	1	0	904.61	0.76	0.68	180.4135	179.0132	0.90461
MRI_faces_114	1	2	2	2	36	182.0155	1226.jpg	1183.jpg	44	46	0	b	2	0	966.32	0.36	0.33	183.4807	182.0155	0.96632
MRI_faces_114	1	2	2	2	37	185.0142	2128.jpg	2043.jpg	52	49	0	y	2	1	981.61	0.26	0.3	186.4978	185.0142	0.98161
MRI_faces_114	1	2	2	2	38	188.0149	2045.jpg	1226.jpg	51	44	1	y	2	0	989.83	0.26	0.36	189.4984	188.0149	0.98983
