subjectID	scanner	order	block	run	trial	onsettime	ImageLeft	ImageRight	bidIndexLeft	bidIndexRight	IsleftGo	Response	PairType	Outcome	RT	bidLeft	bidRight	ixationTime	onset	duration
MRI_faces_133	1	1	3	1	1	2.013412	1192.jpg	1017.jpg	48	52	0	b	2	0	1221.04	0.26	0.22	3.731636	2.013412	1.22104
MRI_faces_133	1	1	3	1	2	9.014676	2043.jpg	2118.jpg	8	7	0	b	1	0	863.76	0.77	0.77	10.38167	9.014676	0.86376
MRI_faces_133	1	1	3	1	3	22.01693	1204.jpg	1191.jpg	47	51	1	y	2	0	1384.5	0.26	0.22	23.90072	22.01693	1.3845
MRI_faces_133	1	1	3	1	4	26.01765	1052.jpg	1060.jpg	49	44	0	y	2	1	1265.8	0.23	0.3	27.7848	26.01765	1.2658
MRI_faces_133	1	1	3	1	5	31.0185	1146.jpg	2149.jpg	46	53	0	y	2	1	1039.92	0.27	0.21	32.56142	31.0185	1.03992
MRI_faces_133	1	1	3	1	6	34.01903	2153.jpg	2212.jpg	12	17	1	y	1	0	1232.4	0.73	0.68	35.75283	34.01903	1.2324
MRI_faces_133	1	1	3	1	7	39.01989	1204.jpg	1146.jpg	47	46	1	y	2	0	1368.56	0.26	0.27	40.88709	39.01989	1.36856
MRI_faces_133	1	1	3	1	8	43.02066	2058.jpg	2194.jpg	16	18	0	y	1	1	1297.79	0.69	0.68	44.81165	43.02066	1.29779
MRI_faces_133	1	1	3	1	9	52.02221	1080.jpg	2248.jpg	55	5	0	y	4	1	1020.21	0.21	0.85	53.53928	52.02221	1.02021
MRI_faces_133	1	1	3	1	10	57.01179	2125.jpg	2240.jpg	9	10	0	b	1	0	1302.65	0.76	0.74	58.82352	57.01179	1.30265
MRI_faces_133	1	1	3	1	11	61.01177	2149.jpg	1191.jpg	53	51	1	b	2	1	1116.67	0.21	0.22	62.6286	61.01177	1.11667
MRI_faces_133	1	1	3	1	12	68.01187	1052.jpg	1073.jpg	49	50	0	b	2	0	1245.57	0.23	0.23	69.76196	68.01187	1.24557
MRI_faces_133	1	1	3	1	13	72.01193	1210.jpg	2149.jpg	43	53	0	y	2	1	1141.53	0.3	0.21	73.66218	72.01193	1.14153
MRI_faces_133	1	1	3	1	14	78.01203	1017.jpg	1052.jpg	52	49	1	b	2	1	1242.42	0.22	0.23	79.76212	78.01203	1.24242
MRI_faces_133	1	1	3	1	15	83.01209	2248.jpg	1226.jpg	5	56	1	b	4	1	1024.35	0.85	0.19	84.54553	83.01209	1.02435
MRI_faces_133	1	1	3	1	16	87.01212	1060.jpg	1210.jpg	44	43	1	b	2	1	1114.33	0.3	0.3	88.62898	87.01212	1.11433
MRI_faces_133	1	1	3	1	17	90.01218	2212.jpg	2006.jpg	17	15	0	y	1	1	1113.25	0.68	0.72	91.62934	90.01218	1.11325
MRI_faces_133	1	1	3	1	18	93.01271	2212.jpg	2209.jpg	17	13	0	y	1	1	1073.7	0.68	0.73	94.59567	93.01271	1.0737
MRI_faces_133	1	1	3	1	19	97.01343	2153.jpg	2218.jpg	12	14	1	x	1	999	999000	0.73	0.72	99.01398	97.01343	999
MRI_faces_133	1	1	3	1	20	110.0157	1073.jpg	1191.jpg	50	51	1	b	2	1	1007.71	0.23	0.22	111.5293	110.0157	1.00771
MRI_faces_133	1	1	3	1	21	114.0164	2212.jpg	2194.jpg	17	18	0	b	1	0	1025.06	0.68	0.68	115.5461	114.0164	1.02506
MRI_faces_133	1	1	3	1	22	117.0169	1150.jpg	1204.jpg	54	47	0	y	2	1	1486.53	0.21	0.26	119.0007	117.0169	1.48653
MRI_faces_133	1	1	3	1	23	122.0179	2209.jpg	1202.jpg	13	11	1	b	1	1	792.6	0.73	0.73	123.3129	122.0179	0.7926
MRI_faces_133	1	1	3	1	24	125.0184	2006.jpg	2058.jpg	15	16	1	b	1	1	1001.09	0.72	0.69	126.5187	125.0184	1.00109
MRI_faces_133	1	1	3	1	25	129.0191	1202.jpg	2153.jpg	11	12	0	y	1	1	829.39	0.73	0.73	130.3462	129.0191	0.82939
MRI_faces_133	1	1	3	1	26	135.0201	2043.jpg	2194.jpg	8	18	0	b	1	0	789.35	0.77	0.68	136.3038	135.0201	0.78935
MRI_faces_133	1	1	3	1	27	138.0206	1192.jpg	1204.jpg	48	47	0	y	2	1	1127.84	0.26	0.26	139.6463	138.0206	1.12784
MRI_faces_133	1	1	3	1	28	142.0213	1173.jpg	1210.jpg	45	43	1	y	2	0	1182.13	0.28	0.3	143.705	142.0213	1.18213
MRI_faces_133	1	1	3	1	29	147.0222	2118.jpg	2125.jpg	7	9	1	b	1	1	1025.28	0.77	0.76	148.5465	147.0222	1.02528
MRI_faces_133	1	1	3	1	30	151.013	2058.jpg	2209.jpg	16	13	0	y	1	1	917.45	0.69	0.73	152.4399	151.013	0.91745
MRI_faces_133	1	1	3	1	31	163.0132	1173.jpg	1150.jpg	45	54	1	b	2	1	789.3	0.28	0.21	164.3086	163.0132	0.7893
MRI_faces_133	1	1	3	1	32	169.0133	2149.jpg	1150.jpg	53	54	1	b	2	1	913.16	0.21	0.21	170.4301	169.0133	0.91316
MRI_faces_133	1	1	3	1	33	172.0135	2209.jpg	2218.jpg	13	14	1	y	1	0	1196.95	0.73	0.72	173.7135	172.0135	1.19695
MRI_faces_133	1	1	3	1	34	176.0137	1052.jpg	1204.jpg	49	47	0	y	2	1	1327.8	0.23	0.26	177.8468	176.0137	1.3278
MRI_faces_133	1	1	3	1	35	179.0134	2153.jpg	2125.jpg	12	9	1	b	1	1	1106.02	0.73	0.76	180.6281	179.0134	1.10602
MRI_faces_133	1	1	3	1	36	182.0151	2153.jpg	2058.jpg	12	16	1	b	1	1	1219.32	0.73	0.69	183.7303	182.0151	1.21932
MRI_faces_133	1	1	3	1	37	185.0134	2218.jpg	2118.jpg	14	7	0	y	1	1	856	0.72	0.77	186.3636	185.0134	0.856
MRI_faces_133	1	1	3	1	38	188.014	2149.jpg	1052.jpg	53	49	1	b	2	1	1104.5	0.21	0.23	189.6137	188.014	1.1045
