subjectID	scanner	order	block	run	trial	onsettime	ImageLeft	ImageRight	bidIndexLeft	bidIndexRight	IsleftGo	Response	PairType	Outcome	RT	bidLeft	bidRight	ixationTime	onset	duration
MRI_faces_112	1	2	3	2	1	2.03254	1192.jpg	1050.jpg	51	52	1	y	2	0	904.46	0.22	0.22	3.433938	2.03254	0.90446
MRI_faces_112	1	2	3	2	2	5.032967	2209.jpg	2112.jpg	14	12	1	b	1	1	972.02	0.66	0.68	6.506207	5.032967	0.97202
MRI_faces_112	1	2	3	2	3	8.033623	1255.jpg	1145.jpg	17	7	1	y	1	0	1041.35	0.63	0.8	9.572968	8.033623	1.04135
MRI_faces_112	1	2	3	2	4	13.0344	1192.jpg	1127.jpg	51	44	1	b	2	1	1080.59	0.22	0.33	14.60631	13.0344	1.08059
MRI_faces_112	1	2	3	2	5	18.02291	2212.jpg	2006.jpg	11	10	1	y	1	0	947.09	0.69	0.72	19.4731	18.02291	0.94709
MRI_faces_112	1	2	3	2	6	25.02308	2039.jpg	2043.jpg	18	16	0	y	1	1	1150.91	0.61	0.63	26.67318	25.02308	1.15091
MRI_faces_112	1	2	3	2	7	29.02316	1202.jpg	1255.jpg	15	17	0	b	1	0	1075.86	0.64	0.63	30.60654	29.02316	1.07586
MRI_faces_112	1	2	3	2	8	32.02317	2006.jpg	2209.jpg	10	14	0	x	1	999	999000	0.72	0.66	34.02339	32.02317	999
MRI_faces_112	1	2	3	2	9	39.02319	1019.jpg	1073.jpg	50	49	0	y	2	1	943.8	0.27	0.27	40.47334	39.02319	0.9438
MRI_faces_112	1	2	3	2	10	43.02336	2212.jpg	1202.jpg	11	15	1	b	1	1	769.65	0.69	0.64	44.29023	43.02336	0.76965
MRI_faces_112	1	2	3	2	11	46.02357	2128.jpg	1146.jpg	48	53	1	y	2	0	1005.43	0.28	0.19	47.54032	46.02357	1.00543
MRI_faces_112	1	2	3	2	12	50.02419	2063.jpg	2209.jpg	13	14	0	b	1	0	1122.82	0.67	0.66	51.65689	50.02419	1.12282
MRI_faces_112	1	2	3	2	13	54.02495	2015.jpg	1202.jpg	9	15	1	y	1	0	1023.06	0.74	0.64	55.55701	54.02495	1.02306
MRI_faces_112	1	2	3	2	14	59.02577	1246.jpg	2153.jpg	54	45	1	b	2	1	1232.21	0.18	0.33	60.75958	59.02577	1.23221
MRI_faces_112	1	2	3	2	15	63.02656	1192.jpg	1146.jpg	51	53	1	y	2	0	858.45	0.22	0.19	64.39034	63.02656	0.85845
MRI_faces_112	1	2	3	2	16	67.02717	1246.jpg	1127.jpg	54	44	1	b	2	1	1256.82	0.18	0.33	68.79042	67.02717	1.25682
MRI_faces_112	1	2	3	2	17	70.02777	2006.jpg	1255.jpg	10	17	0	x	1	999	999000	0.72	0.63	72.02823	70.02777	999
MRI_faces_112	1	2	3	2	18	80.0295	2015.jpg	1145.jpg	9	7	1	y	1	0	1075.5	0.74	0.8	81.60737	80.0295	1.0755
MRI_faces_112	1	2	3	2	19	84.03024	1183.jpg	1204.jpg	47	46	0	b	2	0	973.74	0.3	0.33	85.50731	84.03024	0.97374
MRI_faces_112	1	2	3	2	20	87.03069	1202.jpg	2209.jpg	15	14	0	b	1	0	1012.3	0.64	0.66	88.54083	87.03069	1.0123
MRI_faces_112	1	2	3	2	21	90.03131	1146.jpg	1204.jpg	53	46	0	b	2	0	1236.7	0.19	0.33	91.76505	90.03131	1.2367
MRI_faces_112	1	2	3	2	22	94.03173	1013.jpg	2181.jpg	56	5	0	y	4	1	927.26	0.16	0.83	95.45746	94.03173	0.92726
MRI_faces_112	1	2	3	2	23	100.0328	2112.jpg	2015.jpg	12	9	0	x	1	999	999000	0.68	0.74	102.0332	100.0328	999
MRI_faces_112	1	2	3	2	24	103.0333	2194.jpg	2089.jpg	55	6	0	y	4	1	764.71	0.17	0.81	104.2909	103.0333	0.76471
MRI_faces_112	1	2	3	2	25	106.0242	1019.jpg	2128.jpg	50	48	0	y	2	1	1188.85	0.27	0.28	107.7178	106.0242	1.18885
MRI_faces_112	1	2	3	2	26	110.0243	2112.jpg	1017.jpg	12	8	0	y	1	1	935.69	0.68	0.79	111.4684	110.0243	0.93569
MRI_faces_112	1	2	3	2	27	113.0243	2153.jpg	1073.jpg	45	49	0	b	2	0	872.73	0.33	0.27	114.4023	113.0243	0.87273
MRI_faces_112	1	2	3	2	28	116.0243	1192.jpg	1183.jpg	51	47	1	y	2	0	909.74	0.22	0.3	117.4411	116.0243	0.90974
MRI_faces_112	1	2	3	2	29	130.0245	1073.jpg	1050.jpg	49	52	1	y	2	0	1023.52	0.27	0.22	131.558	130.0245	1.02352
MRI_faces_112	1	2	3	2	30	140.0246	1183.jpg	2128.jpg	47	48	0	b	2	0	1058.4	0.3	0.28	141.5916	140.0246	1.0584
MRI_faces_112	1	2	3	2	31	146.0247	2128.jpg	1127.jpg	48	44	1	b	2	1	1032.3	0.28	0.33	147.5582	146.0247	1.0323
MRI_faces_112	1	2	3	2	32	150.025	2153.jpg	1192.jpg	45	51	0	x	2	999	999000	0.33	0.22	152.0255	150.025	999
MRI_faces_112	1	2	3	2	33	156.0261	2043.jpg	1202.jpg	16	15	1	y	1	0	981.9	0.63	0.64	157.5098	156.0261	0.9819
MRI_faces_112	1	2	3	2	34	160.0268	2110.jpg	2153.jpg	43	45	1	b	2	1	977.18	0.33	0.33	161.5105	160.0268	0.97718
MRI_faces_112	1	2	3	2	35	166.0279	2043.jpg	2006.jpg	16	10	1	y	1	0	908.13	0.63	0.72	167.4418	166.0279	0.90813
MRI_faces_112	1	2	3	2	36	178.03	2209.jpg	1145.jpg	14	7	1	y	1	0	803.03	0.66	0.8	179.3303	178.03	0.80303
MRI_faces_112	1	2	3	2	37	181.0304	2006.jpg	1017.jpg	10	8	0	y	1	1	1107.57	0.72	0.79	182.642	181.0304	1.10757
MRI_faces_112	1	2	3	2	38	188.0317	1050.jpg	2128.jpg	52	48	0	b	2	0	1018.3	0.22	0.28	189.5487	188.0317	1.0183
