subjectID	scanner	order	block	run	trial	onsettime	ImageLeft	ImageRight	bidIndexLeft	bidIndexRight	IsleftGo	Response	PairType	Outcome	RT	bidLeft	bidRight	ixationTime	onset	duration
MRI_faces_142	1	2	2	1	1	2.031895	2112.jpg	1262.jpg	47	46	0	b	2	0	1138.93	0.33	0.34	3.665367	2.031895	1.13893
MRI_faces_142	1	2	2	1	2	9.032019	1035.jpg	2149.jpg	12	11	0	y	1	1	1133.81	0.72	0.73	10.66561	9.032019	1.13381
MRI_faces_142	1	2	2	1	3	22.03224	2218.jpg	1202.jpg	8	7	1	b	1	1	802.59	0.79	0.8	23.33227	22.03224	0.80259
MRI_faces_142	1	2	2	1	4	26.03227	1027.jpg	1173.jpg	45	49	0	x	2	999	999000	0.34	0.3	28.03254	26.03227	999
MRI_faces_142	1	2	2	1	5	31.03225	1192.jpg	1183.jpg	52	43	0	y	2	1	994.57	0.27	0.35	32.53049	31.03225	0.99457
MRI_faces_142	1	2	2	1	6	34.03232	2110.jpg	1173.jpg	44	49	0	y	2	1	954.51	0.35	0.3	35.48264	34.03232	0.95451
MRI_faces_142	1	2	2	1	7	39.03244	2110.jpg	1262.jpg	44	46	0	y	2	1	802.38	0.35	0.34	40.33268	39.03244	0.80238
MRI_faces_142	1	2	2	1	8	43.03254	1017.jpg	2063.jpg	6	56	1	b	4	1	1188.29	0.83	0.21	44.7159	43.03254	1.18829
MRI_faces_142	1	2	2	1	9	52.03368	2112.jpg	1060.jpg	47	51	0	y	2	1	1100.18	0.33	0.27	53.63411	52.03368	1.10018
MRI_faces_142	1	2	2	1	10	57.03447	2218.jpg	1031.jpg	8	13	1	b	1	1	943.35	0.79	0.7	58.46822	57.03447	0.94335
MRI_faces_142	1	2	2	1	11	61.03525	2149.jpg	2118.jpg	11	15	1	b	1	1	645.57	0.73	0.7	62.16891	61.03525	0.64557
MRI_faces_142	1	2	2	1	12	68.0365	1202.jpg	2229.jpg	7	17	0	y	1	1	817.33	0.8	0.66	69.34977	68.0365	0.81733
MRI_faces_142	1	2	2	1	13	72.03285	1255.jpg	1019.jpg	54	53	1	b	2	1	785.97	0.24	0.24	73.32098	72.03285	0.78597
MRI_faces_142	1	2	2	1	14	78.03304	2212.jpg	2153.jpg	10	9	0	b	1	0	791.78	0.73	0.77	79.32191	78.03304	0.79178
MRI_faces_142	1	2	2	1	15	83.03304	1255.jpg	2112.jpg	54	47	1	b	2	1	726.78	0.24	0.33	84.25609	83.03304	0.72678
MRI_faces_142	1	2	2	1	16	87.03308	2218.jpg	1035.jpg	8	12	1	b	1	1	623.71	0.79	0.72	88.15676	87.03308	0.62371
MRI_faces_142	1	2	2	1	17	90.03318	2118.jpg	2218.jpg	15	8	0	y	1	1	756.65	0.7	0.79	91.29068	90.03318	0.75665
MRI_faces_142	1	2	2	1	18	93.0332	2153.jpg	1052.jpg	9	18	1	b	1	1	899.63	0.77	0.64	94.4333	93.0332	0.89963
MRI_faces_142	1	2	2	1	19	97.03318	1031.jpg	1191.jpg	13	16	0	b	1	0	1094.63	0.7	0.7	98.6253	97.03318	1.09463
MRI_faces_142	1	2	2	1	20	110.0334	1031.jpg	2229.jpg	13	17	0	b	1	0	982.4	0.7	0.66	111.517	110.0334	0.9824
MRI_faces_142	1	2	2	1	21	114.0334	1183.jpg	1150.jpg	43	50	1	b	2	1	921.39	0.35	0.29	115.4503	114.0334	0.92139
MRI_faces_142	1	2	2	1	22	117.0334	2149.jpg	1031.jpg	11	13	1	b	1	1	1072.37	0.73	0.7	118.6005	117.0334	1.07237
MRI_faces_142	1	2	2	1	23	122.0335	2209.jpg	2212.jpg	14	10	1	b	1	1	1046.28	0.7	0.73	123.5797	122.0335	1.04628
MRI_faces_142	1	2	2	1	24	125.0336	1255.jpg	1150.jpg	54	50	1	b	2	1	839.26	0.24	0.29	126.367	125.0336	0.83926
MRI_faces_142	1	2	2	1	25	129.0337	1019.jpg	1173.jpg	53	49	0	y	2	1	971.13	0.24	0.3	130.5006	129.0337	0.97113
MRI_faces_142	1	2	2	1	26	135.0337	1255.jpg	1027.jpg	54	45	1	b	2	1	889.12	0.24	0.34	136.4172	135.0337	0.88912
MRI_faces_142	1	2	2	1	27	138.0338	2209.jpg	1031.jpg	14	13	1	b	1	1	838.06	0.7	0.7	139.3672	138.0338	0.83806
MRI_faces_142	1	2	2	1	28	142.0338	1019.jpg	1183.jpg	53	43	0	y	2	1	1376	0.24	0.35	143.9008	142.0338	1.376
MRI_faces_142	1	2	2	1	29	147.0338	1255.jpg	1192.jpg	54	52	1	b	2	1	776.97	0.24	0.27	148.3008	147.0338	0.77697
MRI_faces_142	1	2	2	1	30	151.0342	2181.jpg	2010.jpg	55	5	0	y	4	1	908.57	0.22	0.84	152.4346	151.0342	0.90857
MRI_faces_142	1	2	2	1	31	163.0341	2149.jpg	1202.jpg	11	7	1	b	1	1	852.68	0.73	0.8	164.3868	163.0341	0.85268
MRI_faces_142	1	2	2	1	32	169.0342	1192.jpg	1060.jpg	52	51	0	y	2	1	969.6	0.27	0.27	170.5044	169.0342	0.9696
MRI_faces_142	1	2	2	1	33	172.0343	2153.jpg	1202.jpg	9	7	1	b	1	1	831.57	0.77	0.8	173.3678	172.0343	0.83157
MRI_faces_142	1	2	2	1	34	176.0343	2024.jpg	1192.jpg	48	52	1	b	2	1	947.52	0.32	0.27	177.4724	176.0343	0.94752
MRI_faces_142	1	2	2	1	35	179.0343	1052.jpg	2209.jpg	18	14	0	y	1	1	703.49	0.64	0.7	180.2346	179.0343	0.70349
MRI_faces_142	1	2	2	1	36	182.0344	2024.jpg	1027.jpg	48	45	1	b	2	1	720.43	0.32	0.34	183.2567	182.0344	0.72043
MRI_faces_142	1	2	2	1	37	185.0344	2118.jpg	2153.jpg	15	9	0	b	1	0	882.48	0.7	0.77	186.418	185.0344	0.88248
MRI_faces_142	1	2	2	1	38	188.0344	1150.jpg	1262.jpg	50	46	0	y	2	1	931.41	0.29	0.34	189.4679	188.0344	0.93141
