subjectID	scanner	order	block	run	trial	onsettime	ImageLeft	ImageRight	bidIndexLeft	bidIndexRight	IsleftGo	Response	PairType	Outcome	RT	bidLeft	bidRight	ixationTime	onset	duration
MRI_faces_128	1	2	1	1	1	2.022	1007.jpg	1035.jpg	55	6	0	y	4	1	1179.5	0.23	0.78	3.698403	2.022	1.1795
MRI_faces_128	1	2	1	1	2	5.014069	1073.jpg	1017.jpg	16	15	1	y	1	0	1098.41	0.68	0.69	6.614401	5.014069	1.09841
MRI_faces_128	1	2	1	1	3	8.022036	1255.jpg	1073.jpg	18	16	0	y	1	1	824.44	0.67	0.68	9.338946	8.022036	0.82444
MRI_faces_128	1	2	1	1	4	13.0154	1150.jpg	2164.jpg	48	44	1	y	2	0	1146.1	0.31	0.33	14.66594	13.0154	1.1461
MRI_faces_128	1	2	1	1	5	18.02232	1017.jpg	1027.jpg	15	11	0	b	1	0	1398.22	0.69	0.74	19.91676	18.02232	1.39822
MRI_faces_128	1	2	1	1	6	25.0176	1210.jpg	1027.jpg	10	11	0	b	1	0	870.91	0.74	0.74	26.38917	25.0176	0.87091
MRI_faces_128	1	2	1	1	7	29.0183	1031.jpg	2153.jpg	7	8	0	b	1	0	932.2	0.76	0.76	30.45204	29.0183	0.9322
MRI_faces_128	1	2	1	1	8	32.02242	2149.jpg	2041.jpg	43	52	1	b	2	1	1364.09	0.33	0.27	33.87269	32.02242	1.36409
MRI_faces_128	1	2	1	1	9	39.02007	2149.jpg	2125.jpg	43	50	1	b	2	1	1077.54	0.33	0.29	40.58932	39.02007	1.07754
MRI_faces_128	1	2	1	1	10	43.02074	2229.jpg	2112.jpg	12	14	0	y	1	1	1131.76	0.73	0.7	44.63939	43.02074	1.13176
MRI_faces_128	1	2	1	1	11	46.02266	1262.jpg	1031.jpg	9	7	1	y	1	0	1112.83	0.75	0.76	47.62278	46.02266	1.11283
MRI_faces_128	1	2	1	1	12	50.00704	2164.jpg	1013.jpg	44	46	0	x	2	999	999000	0.33	0.32	52.00618	50.00704	999
MRI_faces_128	1	2	1	1	13	54.00821	1183.jpg	2155.jpg	51	45	1	y	2	0	906.29	0.29	0.33	55.42309	54.00821	0.90629
MRI_faces_128	1	2	1	1	14	59.00693	2155.jpg	2212.jpg	45	49	0	y	2	1	923.6	0.33	0.3	60.44063	59.00693	0.9236
MRI_faces_128	1	2	1	1	15	63.00764	2006.jpg	1210.jpg	17	10	1	b	1	1	1032.87	0.67	0.74	64.54129	63.00764	1.03287
MRI_faces_128	1	2	1	1	16	67.00836	2229.jpg	2006.jpg	12	17	0	y	1	1	697.14	0.73	0.67	68.20861	67.00836	0.69714
MRI_faces_128	1	2	1	1	17	70.02304	1017.jpg	2006.jpg	15	17	0	y	1	1	971.47	0.69	0.67	71.48992	70.02304	0.97147
MRI_faces_128	1	2	1	1	18	80.02318	1013.jpg	1204.jpg	46	47	1	b	2	1	1185.31	0.32	0.31	81.70664	80.02318	1.18531
MRI_faces_128	1	2	1	1	19	84.01123	1073.jpg	2229.jpg	16	12	1	b	1	1	1005.29	0.68	0.73	85.52336	84.01123	1.00529
MRI_faces_128	1	2	1	1	20	87.01174	1031.jpg	1027.jpg	7	11	0	b	1	0	1131.73	0.76	0.74	88.64559	87.01174	1.13173
MRI_faces_128	1	2	1	1	21	90.01233	1035.jpg	1130.jpg	6	56	1	b	4	1	932.15	0.78	0.21	91.44602	90.01233	0.93215
MRI_faces_128	1	2	1	1	22	94.01309	2164.jpg	2212.jpg	44	49	0	b	2	0	1029.44	0.33	0.3	95.5467	94.01309	1.02944
MRI_faces_128	1	2	1	1	23	100.0235	1013.jpg	2155.jpg	46	45	1	b	2	1	1106.02	0.32	0.33	101.6236	100.0235	1.10602
MRI_faces_128	1	2	1	1	24	103.0146	2229.jpg	1262.jpg	12	9	0	b	1	0	1248.94	0.73	0.75	104.7651	103.0146	1.24894
MRI_faces_128	1	2	1	1	25	106.0152	2212.jpg	2041.jpg	49	52	1	b	2	1	1037.35	0.3	0.27	107.5571	106.0152	1.03735
MRI_faces_128	1	2	1	1	26	110.0235	1013.jpg	1173.jpg	46	53	1	b	2	1	1183.95	0.32	0.26	111.6996	110.0235	1.18395
MRI_faces_128	1	2	1	1	27	113.0163	2112.jpg	1017.jpg	14	15	1	b	1	1	1158.14	0.7	0.69	114.6737	113.0163	1.15814
MRI_faces_128	1	2	1	1	28	116.0169	1262.jpg	1114.jpg	9	13	1	y	1	0	1041.58	0.75	0.72	117.5572	116.0169	1.04158
MRI_faces_128	1	2	1	1	29	130.0193	1150.jpg	2125.jpg	48	50	1	y	2	0	982.17	0.31	0.29	131.5031	130.0193	0.98217
MRI_faces_128	1	2	1	1	30	140.0211	1210.jpg	1073.jpg	10	16	0	y	1	1	1048.41	0.74	0.68	141.5575	140.0211	1.04841
MRI_faces_128	1	2	1	1	31	146.0222	1262.jpg	1255.jpg	9	18	1	y	1	0	1254.36	0.75	0.67	147.7743	146.0222	1.25436
MRI_faces_128	1	2	1	1	32	150.0113	1173.jpg	2043.jpg	53	54	0	y	2	1	966.23	0.26	0.23	151.4744	150.0113	0.96623
MRI_faces_128	1	2	1	1	33	156.011	2112.jpg	1031.jpg	14	7	1	y	1	0	1047.45	0.7	0.76	157.5577	156.011	1.04745
MRI_faces_128	1	2	1	1	34	160.0105	1204.jpg	2149.jpg	47	43	0	y	2	1	1191	0.31	0.33	161.7083	160.0105	1.191
MRI_faces_128	1	2	1	1	35	166.0104	2149.jpg	2164.jpg	43	44	1	b	2	1	972.1	0.33	0.33	167.4927	166.0104	0.9721
MRI_faces_128	1	2	1	1	36	178.0119	2155.jpg	1150.jpg	45	48	0	y	2	1	1027.62	0.33	0.31	179.5447	178.0119	1.02762
MRI_faces_128	1	2	1	1	37	181.0116	1204.jpg	2212.jpg	47	49	0	y	2	1	1078.91	0.31	0.3	182.5954	181.0116	1.07891
MRI_faces_128	1	2	1	1	38	188.0136	2041.jpg	1183.jpg	52	51	0	y	2	1	966.96	0.27	0.29	189.4798	188.0136	0.96696
