subjectID	scanner	order	block	run	trial	onsettime	ImageLeft	ImageRight	bidIndexLeft	bidIndexRight	IsleftGo	Response	PairType	Outcome	RT	bidLeft	bidRight	ixationTime	onset	duration
MRI_faces_101	1	1	2	2	1	2.022303	2015.jpg	1031.jpg	16	10	0	y	1	1	1083.29	0.72	0.76	3.599352	2.022303	1.08329
MRI_faces_101	1	1	2	2	2	5.01494	2043.jpg	1216.jpg	11	13	0	y	1	1	825.64	0.74	0.74	6.339219	5.01494	0.82564
MRI_faces_101	1	1	2	2	3	8.022442	2053.jpg	2041.jpg	8	12	0	y	1	1	767.16	0.78	0.74	9.282508	8.022442	0.76716
MRI_faces_101	1	1	2	2	4	13.01628	2043.jpg	2153.jpg	11	7	0	y	1	1	799.31	0.74	0.8	14.3165	13.01628	0.79931
MRI_faces_101	1	1	2	2	5	18.0226	1052.jpg	1262.jpg	43	50	0	y	2	1	971.02	0.31	0.26	19.48945	18.0226	0.97102
MRI_faces_101	1	1	2	2	6	25.0185	1204.jpg	1192.jpg	51	47	0	y	2	1	865.09	0.26	0.28	26.38553	25.0185	0.86509
MRI_faces_101	1	1	2	2	7	29.0191	1210.jpg	2194.jpg	45	54	1	b	2	1	781.48	0.3	0.19	30.30278	29.0191	0.78148
MRI_faces_101	1	1	2	2	8	32.02249	1146.jpg	2110.jpg	49	52	0	y	2	1	779.1	0.28	0.25	33.28958	32.02249	0.7791
MRI_faces_101	1	1	2	2	9	39.02087	1255.jpg	1192.jpg	48	47	0	y	2	1	775.72	0.28	0.28	40.28987	39.02087	0.77572
MRI_faces_101	1	1	2	2	10	43.0216	2155.jpg	1204.jpg	53	51	1	b	2	1	654.99	0.22	0.26	44.17322	43.0216	0.65499
MRI_faces_101	1	1	2	2	11	46.02301	2212.jpg	2015.jpg	15	16	1	b	1	1	697.59	0.73	0.72	47.20648	46.02301	0.69759
MRI_faces_101	1	1	2	2	12	50.00773	2094.jpg	2043.jpg	18	11	1	b	1	1	633.87	0.68	0.74	51.13956	50.00773	0.63387
MRI_faces_101	1	1	2	2	13	54.00726	2094.jpg	1035.jpg	18	9	1	b	1	1	660.33	0.68	0.76	55.17391	54.00726	0.66033
MRI_faces_101	1	1	2	2	14	59.00775	1204.jpg	1262.jpg	51	50	0	y	2	1	882.84	0.26	0.26	60.39152	59.00775	0.88284
MRI_faces_101	1	1	2	2	15	63.00844	1262.jpg	1255.jpg	50	48	1	b	2	1	858.15	0.26	0.28	64.37552	63.00844	0.85815
MRI_faces_101	1	1	2	2	16	67.00919	2155.jpg	2194.jpg	53	54	1	b	2	1	664.4	0.22	0.19	68.17612	67.00919	0.6644
MRI_faces_101	1	1	2	2	17	70.02337	1146.jpg	1210.jpg	49	45	0	y	2	1	905.21	0.28	0.3	71.42668	70.02337	0.90521
MRI_faces_101	1	1	2	2	18	80.01147	2094.jpg	1050.jpg	18	17	1	b	1	1	885.14	0.68	0.7	81.40692	80.01147	0.88514
MRI_faces_101	1	1	2	2	19	84.01208	2110.jpg	1226.jpg	52	46	1	b	2	1	884.52	0.25	0.28	85.39579	84.01208	0.88452
MRI_faces_101	1	1	2	2	20	87.01267	1031.jpg	2006.jpg	10	14	1	b	1	1	694.96	0.76	0.73	88.21301	87.01267	0.69496
MRI_faces_101	1	1	2	2	21	90.01315	1035.jpg	1031.jpg	9	10	0	b	1	0	853.43	0.76	0.76	91.37385	90.01315	0.85343
MRI_faces_101	1	1	2	2	22	94.01391	1226.jpg	1210.jpg	46	45	0	y	2	1	722.69	0.28	0.3	95.24051	94.01391	0.72269
MRI_faces_101	1	1	2	2	23	100.0238	1210.jpg	1255.jpg	45	48	1	b	2	1	613.8	0.3	0.28	101.1319	100.0238	0.6138
MRI_faces_101	1	1	2	2	24	103.0154	1210.jpg	1204.jpg	45	51	1	b	2	1	1195.19	0.3	0.26	104.7159	103.0154	1.19519
MRI_faces_101	1	1	2	2	25	106.0239	2212.jpg	2043.jpg	15	11	1	b	1	1	752.72	0.73	0.74	107.274	106.0239	0.75272
MRI_faces_101	1	1	2	2	26	110.0167	1150.jpg	2118.jpg	56	5	0	y	4	1	861.89	0.17	0.83	111.3838	110.0167	0.86189
MRI_faces_101	1	1	2	2	27	113.0172	2212.jpg	1050.jpg	15	17	1	b	1	1	812.39	0.73	0.7	114.324	113.0172	0.81239
MRI_faces_101	1	1	2	2	28	116.0177	2212.jpg	2006.jpg	15	14	1	b	1	1	925.89	0.73	0.73	117.4408	116.0177	0.92589
MRI_faces_101	1	1	2	2	29	130.0242	1146.jpg	1127.jpg	49	44	0	y	2	1	909.36	0.28	0.3	131.4244	130.0242	0.90936
MRI_faces_101	1	1	2	2	30	140.0243	2006.jpg	2153.jpg	14	7	0	y	1	1	601.27	0.73	0.8	141.1222	140.0243	0.60127
MRI_faces_101	1	1	2	2	31	146.0244	2155.jpg	1255.jpg	53	48	1	b	2	1	640.19	0.22	0.28	147.1579	146.0244	0.64019
MRI_faces_101	1	1	2	2	32	150.0245	2118.jpg	1183.jpg	5	55	1	b	4	1	874.11	0.83	0.18	151.3913	150.0245	0.87411
MRI_faces_101	1	1	2	2	33	156.008	1255.jpg	2110.jpg	48	52	0	y	2	1	699.58	0.28	0.25	157.2084	156.008	0.69958
MRI_faces_101	1	1	2	2	34	160.0245	1035.jpg	2153.jpg	9	7	0	y	1	1	962.06	0.76	0.8	161.4759	160.0245	0.96206
MRI_faces_101	1	1	2	2	35	166.012	1192.jpg	1146.jpg	47	49	1	b	2	1	814.54	0.28	0.28	167.3268	166.012	0.81454
MRI_faces_101	1	1	2	2	36	178.0145	2094.jpg	2006.jpg	18	14	1	b	1	1	685.14	0.68	0.73	179.1955	178.0145	0.68514
MRI_faces_101	1	1	2	2	37	181.0124	1035.jpg	2212.jpg	9	15	0	b	1	0	750.19	0.76	0.73	182.2628	181.0124	0.75019
MRI_faces_101	1	1	2	2	38	188.0249	1035.jpg	2041.jpg	9	12	0	y	1	1	715.71	0.76	0.74	189.2306	188.0249	0.71571
