subjectID	scanner	order	block	run	trial	onsettime	ImageLeft	ImageRight	bidIndexLeft	bidIndexRight	IsleftGo	Response	PairType	Outcome	RT	bidLeft	bidRight	ixationTime	onset	duration
MRI_faces_118	1	2	2	1	1	2.031986	2118.jpg	2181.jpg	15	16	0	y	1	1	1015.5	0.7	0.68	3.549855	2.031986	1.0155
MRI_faces_118	1	2	2	1	2	6.032404	1027.jpg	2058.jpg	44	48	0	b	2	0	1312.11	0.35	0.3	7.83286	6.032404	1.31211
MRI_faces_118	1	2	2	1	3	9.032912	1130.jpg	2110.jpg	47	51	0	y	2	1	889.61	0.32	0.28	10.41661	9.032912	0.88961
MRI_faces_118	1	2	2	1	4	14.03386	2006.jpg	2212.jpg	8	12	1	y	1	0	979.63	0.73	0.72	15.50092	14.03386	0.97963
MRI_faces_118	1	2	2	1	5	17.03428	1050.jpg	1027.jpg	54	44	1	y	2	0	985.2	0.25	0.35	18.51811	17.03428	0.9852
MRI_faces_118	1	2	2	1	6	20.03229	2212.jpg	2229.jpg	12	14	0	b	1	0	1297.21	0.72	0.7	21.81862	20.03229	1.29721
MRI_faces_118	1	2	2	1	7	34.03257	1130.jpg	1216.jpg	47	46	0	y	2	1	785.91	0.32	0.33	35.316	34.03257	0.78591
MRI_faces_118	1	2	2	1	8	38.0326	1226.jpg	2212.jpg	17	12	1	y	1	0	607.9	0.67	0.72	39.13832	38.0326	0.6079
MRI_faces_118	1	2	2	1	9	42.03263	1031.jpg	2181.jpg	7	16	0	y	1	1	856.86	0.75	0.68	43.38901	42.03263	0.85686
MRI_faces_118	1	2	2	1	10	45.03274	1027.jpg	2125.jpg	44	43	0	b	2	0	1010.76	0.35	0.35	46.53982	45.03274	1.01076
MRI_faces_118	1	2	2	1	11	48.03276	2010.jpg	1017.jpg	10	9	0	b	1	0	705.75	0.72	0.72	49.24028	48.03276	0.70575
MRI_faces_118	1	2	2	1	12	53.03281	1013.jpg	2155.jpg	50	49	0	b	2	0	840.7	0.29	0.29	54.37432	53.03281	0.8407
MRI_faces_118	1	2	2	1	13	56.03291	1017.jpg	2212.jpg	9	12	1	b	1	1	880.58	0.72	0.72	57.40819	56.03291	0.88058
MRI_faces_118	1	2	2	1	14	66.03306	1027.jpg	2110.jpg	44	51	0	x	2	999	999000	0.35	0.28	68.03312	66.03306	999
MRI_faces_118	1	2	2	1	15	72.03305	2125.jpg	1130.jpg	43	47	1	y	2	0	986.49	0.35	0.32	73.51659	72.03305	0.98649
MRI_faces_118	1	2	2	1	16	75.03313	2015.jpg	2212.jpg	11	12	1	y	1	0	600.38	0.72	0.72	76.13334	75.03313	0.60038
MRI_faces_118	1	2	2	1	17	79.03313	1216.jpg	1027.jpg	46	44	1	b	2	1	1054.35	0.33	0.35	80.58334	79.03313	1.05435
MRI_faces_118	1	2	2	1	18	84.0333	2240.jpg	1246.jpg	5	55	1	b	4	1	910.18	0.78	0.21	85.43339	84.0333	0.91018
MRI_faces_118	1	2	2	1	19	91.03331	1226.jpg	2153.jpg	17	13	1	y	1	0	626.15	0.67	0.71	92.15019	91.03331	0.62615
MRI_faces_118	1	2	2	1	20	96.03347	2010.jpg	2015.jpg	10	11	0	b	1	0	687.02	0.72	0.72	97.21691	96.03347	0.68702
MRI_faces_118	1	2	2	1	21	99.03349	2155.jpg	1130.jpg	49	47	1	y	2	0	1440.04	0.29	0.32	100.9669	99.03349	1.44004
MRI_faces_118	1	2	2	1	22	105.0335	1226.jpg	2043.jpg	17	18	1	y	1	0	643.97	0.67	0.65	106.1672	105.0335	0.64397
MRI_faces_118	1	2	2	1	23	109.0338	1050.jpg	1114.jpg	54	52	1	b	2	1	633.71	0.25	0.27	110.1674	109.0338	0.63371
MRI_faces_118	1	2	2	1	24	121.0337	1146.jpg	1262.jpg	56	6	0	y	4	1	589.75	0.21	0.76	122.1195	121.0337	0.58975
MRI_faces_118	1	2	2	1	25	124.0339	1031.jpg	2229.jpg	7	14	0	y	1	1	558.63	0.75	0.7	125.0869	124.0339	0.55863
MRI_faces_118	1	2	2	1	26	127.0338	1031.jpg	2006.jpg	7	8	0	b	1	0	736.65	0.75	0.73	128.2706	127.0338	0.73665
MRI_faces_118	1	2	2	1	27	131.0339	1183.jpg	1216.jpg	45	46	0	y	2	1	610.6	0.35	0.33	132.138	131.0339	0.6106
MRI_faces_118	1	2	2	1	28	137.034	2110.jpg	1183.jpg	51	45	1	y	2	0	788.5	0.28	0.35	138.3224	137.034	0.7885
MRI_faces_118	1	2	2	1	29	140.0341	2153.jpg	2229.jpg	13	14	0	y	1	1	826.42	0.71	0.7	141.3562	140.0341	0.82642
MRI_faces_118	1	2	2	1	30	149.0341	1017.jpg	2118.jpg	9	15	1	y	1	0	904.44	0.72	0.7	150.4342	149.0341	0.90444
MRI_faces_118	1	2	2	1	31	153.0341	2058.jpg	1130.jpg	48	47	1	b	2	1	899.33	0.3	0.32	154.4251	153.0341	0.89933
MRI_faces_118	1	2	2	1	32	157.0342	2125.jpg	1013.jpg	43	50	1	y	2	0	1222.27	0.35	0.29	158.7511	157.0342	1.22227
MRI_faces_118	1	2	2	1	33	160.0342	2058.jpg	1013.jpg	48	50	1	b	2	1	907.26	0.3	0.29	161.4344	160.0342	0.90726
MRI_faces_118	1	2	2	1	34	163.0265	2010.jpg	2006.jpg	10	8	0	y	1	1	795.04	0.72	0.73	164.3269	163.0265	0.79504
MRI_faces_118	1	2	2	1	35	173.0282	2058.jpg	1114.jpg	48	52	1	b	2	1	1032.28	0.3	0.27	174.5621	173.0282	1.03228
MRI_faces_118	1	2	2	1	36	177.0289	2212.jpg	2181.jpg	12	16	0	b	1	0	1005.58	0.72	0.68	178.5346	177.0289	1.00558
MRI_faces_118	1	2	2	1	37	185.0346	2043.jpg	2015.jpg	18	11	0	y	1	1	1142.91	0.65	0.72	186.6681	185.0346	1.14291
MRI_faces_118	1	2	2	1	38	188.0346	2155.jpg	1114.jpg	49	52	1	y	2	0	943.88	0.29	0.27	189.468	188.0346	0.94388
