subjectID	scanner	order	block	run	trial	onsettime	ImageLeft	ImageRight	bidIndexLeft	bidIndexRight	IsleftGo	Response	PairType	Outcome	RT	bidLeft	bidRight	ixationTime	onset	duration
MRI_faces_105	1	1	1	2	1	2.017884	1204.jpg	1019.jpg	54	47	0	y	2	1	777.38	0.2	0.28	3.298428	2.017884	0.77738
MRI_faces_105	1	1	1	2	2	6.017946	2063.jpg	2094.jpg	16	13	0	y	1	1	821.34	0.69	0.71	7.334739	6.017946	0.82134
MRI_faces_105	1	1	1	2	3	13.01816	2063.jpg	1216.jpg	16	12	0	b	1	0	905.1	0.69	0.71	14.41828	13.01816	0.9051
MRI_faces_105	1	1	1	2	4	16.01812	1262.jpg	2240.jpg	9	18	0	y	1	1	1004.15	0.75	0.67	17.51824	16.01812	1.00415
MRI_faces_105	1	1	1	2	5	21.01826	2128.jpg	2112.jpg	48	53	0	b	2	0	915.01	0.28	0.23	22.43505	21.01826	0.91501
MRI_faces_105	1	1	1	2	6	31.01872	2039.jpg	2229.jpg	52	51	1	y	2	0	909.56	0.23	0.23	32.41906	31.01872	0.90956
MRI_faces_105	1	1	1	2	7	34.02167	1013.jpg	2053.jpg	14	7	0	y	1	1	762.58	0.7	0.78	35.2862	34.02167	0.76258
MRI_faces_105	1	1	1	2	8	37.01968	2112.jpg	1146.jpg	53	43	1	y	2	0	991.59	0.23	0.39	38.5035	37.01968	0.99159
MRI_faces_105	1	1	1	2	9	46.02211	2094.jpg	1226.jpg	13	17	1	b	1	1	691.17	0.71	0.68	47.20499	46.02211	0.69117
MRI_faces_105	1	1	1	2	10	49.02186	2128.jpg	2089.jpg	48	50	0	b	2	0	845.42	0.28	0.27	50.36881	49.02186	0.84542
MRI_faces_105	1	1	1	2	11	59.01884	2240.jpg	2063.jpg	18	16	1	y	1	0	992.44	0.67	0.69	60.5073	59.01884	0.99244
MRI_faces_105	1	1	1	2	12	64.0188	2089.jpg	1060.jpg	50	49	1	b	2	1	964.48	0.27	0.28	65.48563	64.0188	0.96448
MRI_faces_105	1	1	1	2	13	69.01895	1060.jpg	2112.jpg	49	53	0	y	2	1	933.33	0.28	0.23	70.45237	69.01895	0.93333
MRI_faces_105	1	1	1	2	14	77.01906	2063.jpg	1127.jpg	16	10	0	b	1	0	931.23	0.69	0.75	78.45246	77.01906	0.93123
MRI_faces_105	1	1	1	2	15	84.01896	2024.jpg	1060.jpg	44	49	1	b	2	1	871.32	0.38	0.28	85.39504	84.01896	0.87132
MRI_faces_105	1	1	1	2	16	88.01896	1017.jpg	2128.jpg	45	48	1	y	2	0	791.33	0.36	0.28	89.31239	88.01896	0.79133
MRI_faces_105	1	1	1	2	17	91.01927	1146.jpg	1019.jpg	43	47	0	b	2	0	987	0.39	0.28	92.50271	91.01927	0.987
MRI_faces_105	1	1	1	2	18	96.01912	2089.jpg	2229.jpg	50	51	1	b	2	1	1070.14	0.27	0.23	97.58615	96.01912	1.07014
MRI_faces_105	1	1	1	2	19	99.01932	1060.jpg	2039.jpg	49	52	0	b	2	0	1038.97	0.28	0.23	100.5528	99.01932	1.03897
MRI_faces_105	1	1	1	2	20	107.0192	1114.jpg	2094.jpg	11	13	0	y	1	1	911.02	0.73	0.71	108.4324	107.0192	0.91102
MRI_faces_105	1	1	1	2	21	113.0196	2240.jpg	1226.jpg	18	17	1	b	1	1	838.71	0.67	0.68	114.3531	113.0196	0.83871
MRI_faces_105	1	1	1	2	22	118.0196	2053.jpg	1262.jpg	7	9	1	b	1	1	949.66	0.78	0.75	119.4697	118.0196	0.94966
MRI_faces_105	1	1	1	2	23	123.0197	2118.jpg	2053.jpg	8	7	0	y	1	1	1110.58	0.76	0.78	124.6198	123.0197	1.11058
MRI_faces_105	1	1	1	2	24	126.0196	1216.jpg	1262.jpg	12	9	1	b	1	1	1342.64	0.71	0.75	127.8531	126.0196	1.34264
MRI_faces_105	1	1	1	2	25	140.021	2058.jpg	2181.jpg	55	6	0	y	4	1	959.28	0.19	0.82	141.4714	140.021	0.95928
MRI_faces_105	1	1	1	2	26	143.0216	1019.jpg	1060.jpg	47	49	1	b	2	1	1059.74	0.28	0.28	144.572	143.0216	1.05974
MRI_faces_105	1	1	1	2	27	147.0223	1127.jpg	1262.jpg	10	9	1	y	1	0	745	0.75	0.75	148.2559	147.0223	0.745
MRI_faces_105	1	1	1	2	28	151.0229	2039.jpg	1146.jpg	52	43	1	y	2	0	954.35	0.23	0.39	152.4734	151.0229	0.95435
MRI_faces_105	1	1	1	2	29	154.0235	2089.jpg	2153.jpg	50	46	1	b	2	1	1069.8	0.27	0.3	155.5906	154.0235	1.0698
MRI_faces_105	1	1	1	2	30	157.0201	1127.jpg	1114.jpg	10	11	1	b	1	1	978.18	0.75	0.73	158.4911	157.0201	0.97818
MRI_faces_105	1	1	1	2	31	163.0202	1013.jpg	2094.jpg	14	13	0	y	1	1	963.11	0.7	0.71	164.4755	163.0202	0.96311
MRI_faces_105	1	1	1	2	32	169.0202	1114.jpg	2240.jpg	11	18	0	b	1	0	1185.04	0.73	0.67	170.7037	169.0202	1.18504
MRI_faces_105	1	1	1	2	33	172.0203	1060.jpg	1017.jpg	49	45	0	y	2	1	1132.01	0.28	0.36	173.6537	172.0203	1.13201
MRI_faces_105	1	1	1	2	34	175.0204	2153.jpg	1019.jpg	46	47	0	b	2	0	927.91	0.3	0.28	176.4442	175.0204	0.92791
MRI_faces_105	1	1	1	2	35	179.0204	2112.jpg	2229.jpg	53	51	1	y	2	0	844.83	0.23	0.23	180.3616	179.0204	0.84483
MRI_faces_105	1	1	1	2	36	182.0205	1262.jpg	2094.jpg	9	13	0	y	1	1	785.83	0.75	0.71	183.3039	182.0205	0.78583
MRI_faces_105	1	1	1	2	37	185.0204	2218.jpg	2063.jpg	15	16	1	y	1	0	824.86	0.7	0.69	186.346	185.0204	0.82486
MRI_faces_105	1	1	1	2	38	188.0205	2181.jpg	2045.jpg	6	56	1	b	4	1	681.78	0.82	0.18	189.204	188.0205	0.68178
