subjectID	scanner	order	block	run	trial	onsettime	ImageLeft	ImageRight	bidIndexLeft	bidIndexRight	IsleftGo	Response	PairType	Outcome	RT	bidLeft	bidRight	ixationTime	onset	duration
MRI_faces_102	1	2	2	2	1	2.013737	2248.jpg	1262.jpg	13	11	0	b	1	0	753.78	0.72	0.73	3.264996	2.013737	0.75378
MRI_faces_102	1	2	2	2	2	6.01434	1013.jpg	1173.jpg	45	54	0	y	2	1	808.13	0.29	0.21	7.326747	6.01434	0.80813
MRI_faces_102	1	2	2	2	3	9.014846	1052.jpg	1130.jpg	49	44	1	y	2	0	1027.66	0.28	0.35	10.54865	9.014846	1.02766
MRI_faces_102	1	2	2	2	4	14.01574	1035.jpg	2010.jpg	7	8	0	b	1	0	704.74	0.79	0.77	15.21617	14.01574	0.70474
MRI_faces_102	1	2	2	2	5	17.01626	2089.jpg	2015.jpg	15	14	0	y	1	1	715.22	0.68	0.7	18.23331	17.01626	0.71522
MRI_faces_102	1	2	2	2	6	20.01678	1127.jpg	2045.jpg	51	50	1	b	2	1	1053.71	0.24	0.24	21.56719	20.01678	1.05371
MRI_faces_102	1	2	2	2	7	34.01929	1052.jpg	1192.jpg	49	47	1	b	2	1	1035.2	0.28	0.29	35.55304	34.01929	1.0352
MRI_faces_102	1	2	2	2	8	38.01994	1027.jpg	2045.jpg	48	50	1	b	2	1	1014.55	0.28	0.24	39.52723	38.01994	1.01455
MRI_faces_102	1	2	2	2	9	42.02076	1013.jpg	1127.jpg	45	51	0	y	2	1	1165.74	0.29	0.24	43.67729	42.02076	1.16574
MRI_faces_102	1	2	2	2	10	45.01056	2010.jpg	1191.jpg	8	18	1	b	1	1	737.93	0.77	0.66	46.25494	45.01056	0.73793
MRI_faces_102	1	2	2	2	11	48.01066	1191.jpg	1262.jpg	18	11	0	b	1	0	1127.83	0.66	0.73	49.6441	48.01066	1.12783
MRI_faces_102	1	2	2	2	12	53.01077	2118.jpg	1246.jpg	5	55	1	b	4	1	794.72	0.85	0.21	54.31078	53.01077	0.79472
MRI_faces_102	1	2	2	2	13	56.01072	1127.jpg	1150.jpg	51	53	1	b	2	1	918.75	0.24	0.22	57.44014	56.01072	0.91875
MRI_faces_102	1	2	2	2	14	66.01085	1031.jpg	1035.jpg	17	7	1	y	1	0	1053.64	0.67	0.79	67.57528	66.01085	1.05364
MRI_faces_102	1	2	2	2	15	72.011	1013.jpg	1027.jpg	45	48	0	b	2	0	1217.49	0.29	0.28	73.72777	72.011	1.21749
MRI_faces_102	1	2	2	2	16	75.01095	1150.jpg	1052.jpg	53	49	0	y	2	1	964.53	0.22	0.28	76.47785	75.01095	0.96453
MRI_faces_102	1	2	2	2	17	79.01103	2181.jpg	1191.jpg	9	18	1	b	1	1	674.45	0.76	0.66	80.19453	79.01103	0.67445
MRI_faces_102	1	2	2	2	18	84.01145	2089.jpg	2181.jpg	15	9	0	y	1	1	723.03	0.68	0.76	85.22812	84.01145	0.72303
MRI_faces_102	1	2	2	2	19	91.01264	2248.jpg	2010.jpg	13	8	0	y	1	1	1094.85	0.72	0.77	92.61294	91.01264	1.09485
MRI_faces_102	1	2	2	2	20	96.01343	1027.jpg	1060.jpg	48	52	1	b	2	1	1211.06	0.28	0.24	97.73056	96.01343	1.21106
MRI_faces_102	1	2	2	2	21	99.01404	2212.jpg	2010.jpg	10	8	0	y	1	1	976.47	0.75	0.77	100.4978	99.01404	0.97647
MRI_faces_102	1	2	2	2	22	105.0151	1216.jpg	1035.jpg	16	7	1	y	1	0	1121.42	0.68	0.79	106.6321	105.0151	1.12142
MRI_faces_102	1	2	2	2	23	109.0158	1150.jpg	1019.jpg	53	43	0	b	2	0	1038.72	0.22	0.35	110.5494	109.0158	1.03872
MRI_faces_102	1	2	2	2	24	121.0178	1060.jpg	1019.jpg	52	43	0	y	2	1	898.7	0.24	0.35	122.4182	121.0178	0.8987
MRI_faces_102	1	2	2	2	25	124.0184	1262.jpg	2153.jpg	11	12	1	y	1	0	797.05	0.73	0.72	125.3118	124.0184	0.79705
MRI_faces_102	1	2	2	2	26	127.0189	1216.jpg	1191.jpg	16	18	1	b	1	1	768.64	0.68	0.66	128.2859	127.0189	0.76864
MRI_faces_102	1	2	2	2	27	131.0195	2089.jpg	1216.jpg	15	16	0	b	1	0	816.98	0.68	0.68	132.3366	131.0195	0.81698
MRI_faces_102	1	2	2	2	28	137.0206	1150.jpg	1173.jpg	53	54	0	b	2	0	821.94	0.22	0.21	138.3376	137.0206	0.82194
MRI_faces_102	1	2	2	2	29	140.0212	1127.jpg	1060.jpg	51	52	1	b	2	1	929.29	0.24	0.24	141.4454	140.0212	0.92929
MRI_faces_102	1	2	2	2	30	149.012	1192.jpg	1027.jpg	47	48	0	y	2	1	923.48	0.29	0.28	150.4455	149.012	0.92348
MRI_faces_102	1	2	2	2	31	153.012	2153.jpg	2015.jpg	12	14	0	b	1	0	1216.42	0.72	0.7	154.7288	153.012	1.21642
MRI_faces_102	1	2	2	2	32	157.0122	1173.jpg	1060.jpg	54	52	1	y	2	0	806.32	0.21	0.24	158.3244	157.0122	0.80632
MRI_faces_102	1	2	2	2	33	160.0137	1019.jpg	1192.jpg	43	47	1	y	2	0	904.82	0.35	0.29	161.425	160.0137	0.90482
MRI_faces_102	1	2	2	2	34	163.0123	2110.jpg	1114.jpg	56	6	0	y	4	1	1054.23	0.16	0.82	164.5755	163.0123	1.05423
MRI_faces_102	1	2	2	2	35	173.0123	1031.jpg	2089.jpg	17	15	1	y	1	0	878.2	0.67	0.68	174.3958	173.0123	0.8782
MRI_faces_102	1	2	2	2	36	177.0123	2045.jpg	1019.jpg	50	43	0	y	2	1	932.15	0.24	0.35	178.4459	177.0123	0.93215
MRI_faces_102	1	2	2	2	37	185.0125	2181.jpg	2153.jpg	9	12	1	b	1	1	1280.97	0.76	0.72	186.7961	185.0125	1.28097
MRI_faces_102	1	2	2	2	38	188.0146	2181.jpg	2212.jpg	9	10	1	b	1	1	601.9	0.76	0.75	189.1131	188.0146	0.6019
