subjectID	scanner	order	block	run	trial	onsettime	ImageLeft	ImageRight	bidIndexLeft	bidIndexRight	IsleftGo	Response	PairType	Outcome	RT	bidLeft	bidRight	ixationTime	onset	duration
MRI_faces_117	1	1	3	2	1	2.028532	1246.jpg	2112.jpg	43	47	0	b	2	0	867.01	0.34	0.29	3.396551	2.028532	0.86701
MRI_faces_117	1	1	3	2	2	9.015647	1262.jpg	2058.jpg	44	54	1	b	2	1	824.9	0.32	0.2	10.34916	9.015647	0.8249
MRI_faces_117	1	1	3	2	3	22.0158	1262.jpg	1246.jpg	44	43	1	b	2	1	901.75	0.32	0.34	23.41592	22.0158	0.90175
MRI_faces_117	1	1	3	2	4	26.01599	2128.jpg	1226.jpg	55	6	0	y	4	1	1047.57	0.19	0.79	27.56641	26.01599	1.04757
MRI_faces_117	1	1	3	2	5	31.01696	2063.jpg	1262.jpg	46	44	0	y	2	1	1128.58	0.31	0.32	32.65065	31.01696	1.12858
MRI_faces_117	1	1	3	2	6	34.01746	1191.jpg	1019.jpg	14	13	0	y	1	1	840.09	0.67	0.68	35.36775	34.01746	0.84009
MRI_faces_117	1	1	3	2	7	39.01827	1050.jpg	1127.jpg	7	17	1	b	1	1	872.28	0.79	0.65	40.39952	39.01827	0.87228
MRI_faces_117	1	1	3	2	8	43.01894	2094.jpg	2058.jpg	52	54	1	y	2	0	792.6	0.21	0.2	44.31935	43.01894	0.7926
MRI_faces_117	1	1	3	2	9	52.02057	2063.jpg	2043.jpg	46	50	0	b	2	0	1093.99	0.31	0.23	53.62101	52.02057	1.09399
MRI_faces_117	1	1	3	2	10	57.0215	2058.jpg	2248.jpg	54	53	0	b	2	0	1431.04	0.2	0.2	58.95532	57.0215	1.43104
MRI_faces_117	1	1	3	2	11	61.02221	2155.jpg	2112.jpg	49	47	0	b	2	0	1152.32	0.25	0.29	62.67259	61.02221	1.15232
MRI_faces_117	1	1	3	2	12	68.0234	1210.jpg	2125.jpg	11	18	0	b	1	0	857.14	0.72	0.64	69.38323	68.0234	0.85714
MRI_faces_117	1	1	3	2	13	72.02407	1191.jpg	2053.jpg	14	12	0	b	1	0	1050.49	0.67	0.69	73.57463	72.02407	1.05049
MRI_faces_117	1	1	3	2	14	78.02517	2094.jpg	2063.jpg	52	46	1	y	2	0	1310.39	0.21	0.31	79.83344	78.02517	1.31039
MRI_faces_117	1	1	3	2	15	83.02599	1191.jpg	1183.jpg	14	15	0	b	1	0	903.53	0.67	0.67	84.42636	83.02599	0.90353
MRI_faces_117	1	1	3	2	16	87.02674	1262.jpg	1052.jpg	44	48	1	b	2	1	918.82	0.32	0.27	88.44368	87.02674	0.91882
MRI_faces_117	1	1	3	2	17	90.02721	1013.jpg	2125.jpg	16	18	0	b	1	0	1132.32	0.67	0.64	91.66093	90.02721	1.13232
MRI_faces_117	1	1	3	2	18	93.02775	2112.jpg	2149.jpg	47	51	1	b	2	1	1095.78	0.29	0.22	94.61687	93.02775	1.09578
MRI_faces_117	1	1	3	2	19	97.01682	1246.jpg	1204.jpg	43	45	0	b	2	0	1226.72	0.34	0.31	98.75034	97.01682	1.22672
MRI_faces_117	1	1	3	2	20	110.0171	1210.jpg	1050.jpg	11	7	0	b	1	0	880.48	0.72	0.79	111.4005	110.0171	0.88048
MRI_faces_117	1	1	3	2	21	114.017	1019.jpg	2041.jpg	13	9	1	b	1	1	922.49	0.68	0.75	115.4505	114.017	0.92249
MRI_faces_117	1	1	3	2	22	117.0171	2094.jpg	1246.jpg	52	43	1	y	2	0	1034.39	0.21	0.34	118.5506	117.0171	1.03439
MRI_faces_117	1	1	3	2	23	122.0171	2041.jpg	2053.jpg	9	12	0	b	1	0	839.42	0.75	0.69	123.3673	122.0171	0.83942
MRI_faces_117	1	1	3	2	24	125.0173	1050.jpg	2041.jpg	7	9	1	y	1	0	805.3	0.79	0.75	126.334	125.0173	0.8053
MRI_faces_117	1	1	3	2	25	129.0173	2053.jpg	1127.jpg	12	17	1	y	1	0	1047.24	0.69	0.65	130.5677	129.0173	1.04724
MRI_faces_117	1	1	3	2	26	135.0185	1114.jpg	2164.jpg	10	8	1	b	1	1	889.08	0.74	0.77	136.4176	135.0185	0.88908
MRI_faces_117	1	1	3	2	27	138.02	1013.jpg	1050.jpg	16	7	0	y	1	1	1114.58	0.67	0.79	139.636	138.02	1.11458
MRI_faces_117	1	1	3	2	28	142.0196	2043.jpg	2149.jpg	50	51	1	y	2	0	1307.98	0.23	0.22	143.8367	142.0196	1.30798
MRI_faces_117	1	1	3	2	29	147.0205	2149.jpg	2094.jpg	51	52	0	y	2	1	1091	0.22	0.21	148.6176	147.0205	1.091
MRI_faces_117	1	1	3	2	30	151.0212	2053.jpg	1210.jpg	12	11	1	y	1	0	900.38	0.69	0.72	152.4215	151.0212	0.90038
MRI_faces_117	1	1	3	2	31	163.0233	2058.jpg	2043.jpg	54	50	0	y	2	1	990.24	0.2	0.23	164.5179	163.0233	0.99024
MRI_faces_117	1	1	3	2	32	169.0243	1019.jpg	2164.jpg	13	8	1	b	1	1	849.27	0.68	0.77	170.3747	169.0243	0.84927
MRI_faces_117	1	1	3	2	33	172.0249	2149.jpg	2248.jpg	51	53	0	y	2	1	1073.69	0.22	0.2	173.6013	172.0249	1.07369
MRI_faces_117	1	1	3	2	34	176.0255	1204.jpg	2058.jpg	45	54	1	b	2	1	961.01	0.31	0.2	177.4847	176.0255	0.96101
MRI_faces_117	1	1	3	2	35	179.0261	1114.jpg	1191.jpg	10	14	1	b	1	1	781.46	0.74	0.67	180.3098	179.0261	0.78146
MRI_faces_117	1	1	3	2	36	182.0266	1114.jpg	1127.jpg	10	17	1	b	1	1	710.96	0.74	0.65	183.2348	182.0266	0.71096
MRI_faces_117	1	1	3	2	37	185.0271	1210.jpg	1019.jpg	11	13	0	y	1	1	1141.46	0.72	0.68	186.6682	185.0271	1.14146
MRI_faces_117	1	1	3	2	38	188.0277	1035.jpg	2024.jpg	5	56	1	b	4	1	886.87	0.8	0.18	189.4114	188.0277	0.88687
