subjectID	scanner	order	block	run	trial	onsettime	ImageLeft	ImageRight	bidIndexLeft	bidIndexRight	IsleftGo	Response	PairType	Outcome	RT	bidLeft	bidRight	ixationTime	onset	duration
MRI_faces_121	1	1	1	1	1	2.021787	2058.jpg	2194.jpg	52	49	1	b	2	1	915.13	0.3	0.32	3.439597	2.021787	0.91513
MRI_faces_121	1	1	1	1	2	6.021804	2045.jpg	2112.jpg	46	50	0	y	2	1	744.12	0.34	0.3	7.264419	6.021804	0.74412
MRI_faces_121	1	1	1	1	3	9.021827	2043.jpg	2181.jpg	15	8	1	y	1	0	739.08	0.66	0.77	10.25531	9.021827	0.73908
MRI_faces_121	1	1	1	1	4	14.02187	2181.jpg	1031.jpg	8	7	0	y	1	1	638.05	0.77	0.78	15.15551	14.02187	0.63805
MRI_faces_121	1	1	1	1	5	17.02199	2043.jpg	2110.jpg	15	11	1	b	1	1	730.93	0.66	0.71	18.25538	17.02199	0.73093
MRI_faces_121	1	1	1	1	6	20.02202	2015.jpg	2058.jpg	48	52	0	b	2	0	783.91	0.33	0.3	21.30549	20.02202	0.78391
MRI_faces_121	1	1	1	1	7	34.02225	2058.jpg	2164.jpg	52	54	1	b	2	1	669.68	0.3	0.29	35.18908	34.02225	0.66968
MRI_faces_121	1	1	1	1	8	38.02229	2045.jpg	2089.jpg	46	53	0	y	2	1	847.63	0.34	0.3	39.36998	38.02229	0.84763
MRI_faces_121	1	1	1	1	9	42.02235	2089.jpg	2164.jpg	53	54	1	b	2	1	676.56	0.3	0.29	43.18927	42.02235	0.67656
MRI_faces_121	1	1	1	1	10	45.02238	2089.jpg	2015.jpg	53	48	1	y	2	0	671.53	0.3	0.33	46.18911	45.02238	0.67153
MRI_faces_121	1	1	1	1	11	48.02244	1191.jpg	2043.jpg	9	15	0	b	1	0	722.48	0.77	0.66	49.23922	48.02244	0.72248
MRI_faces_121	1	1	1	1	12	53.02254	1073.jpg	1145.jpg	17	10	0	b	1	0	738.4	0.61	0.72	54.25596	53.02254	0.7384
MRI_faces_121	1	1	1	1	13	56.02281	2045.jpg	1183.jpg	46	45	0	y	2	1	886.13	0.34	0.35	57.40651	56.02281	0.88613
MRI_faces_121	1	1	1	1	14	66.02265	2164.jpg	1226.jpg	54	44	0	y	2	1	770.29	0.29	0.35	67.29153	66.02265	0.77029
MRI_faces_121	1	1	1	1	15	72.02278	2089.jpg	2041.jpg	53	51	1	y	2	0	867.15	0.3	0.3	73.38954	72.02278	0.86715
MRI_faces_121	1	1	1	1	16	75.02283	1246.jpg	2112.jpg	43	50	0	y	2	1	690.08	0.38	0.3	76.20984	75.02283	0.69008
MRI_faces_121	1	1	1	1	17	79.02282	2043.jpg	1146.jpg	15	14	1	y	1	0	760.11	0.66	0.68	80.27715	79.02282	0.76011
MRI_faces_121	1	1	1	1	18	84.02287	1073.jpg	1031.jpg	17	7	0	y	1	1	786.07	0.61	0.78	85.30636	84.02287	0.78607
MRI_faces_121	1	1	1	1	19	91.02304	1145.jpg	1052.jpg	10	16	1	y	1	0	649.89	0.72	0.63	92.17326	91.02304	0.64989
MRI_faces_121	1	1	1	1	20	96.0231	2058.jpg	2045.jpg	52	46	1	b	2	1	817.83	0.3	0.34	97.3398	96.0231	0.81783
MRI_faces_121	1	1	1	1	21	99.02315	1204.jpg	2153.jpg	56	6	0	y	4	1	721.77	0.25	0.82	100.2398	99.02315	0.72177
MRI_faces_121	1	1	1	1	22	105.0232	2041.jpg	2058.jpg	51	52	0	y	2	1	619.75	0.3	0.3	106.1401	105.0232	0.61975
MRI_faces_121	1	1	1	1	23	109.0233	1052.jpg	2229.jpg	16	12	0	y	1	1	605.67	0.63	0.69	110.1234	109.0233	0.60567
MRI_faces_121	1	1	1	1	24	121.0234	1255.jpg	1073.jpg	13	17	1	y	1	0	707.53	0.69	0.61	122.2235	121.0234	0.70753
MRI_faces_121	1	1	1	1	25	124.0234	1226.jpg	2045.jpg	44	46	1	b	2	1	633.49	0.35	0.34	125.157	124.0234	0.63349
MRI_faces_121	1	1	1	1	26	127.0235	1262.jpg	1073.jpg	18	17	1	b	1	1	898.49	0.6	0.61	128.4236	127.0235	0.89849
MRI_faces_121	1	1	1	1	27	131.0235	1150.jpg	1035.jpg	55	5	0	y	4	1	860.4	0.29	0.86	132.3737	131.0235	0.8604
MRI_faces_121	1	1	1	1	28	137.0236	2110.jpg	1145.jpg	11	10	0	y	1	1	709.37	0.71	0.72	138.2238	137.0236	0.70937
MRI_faces_121	1	1	1	1	29	140.0236	1183.jpg	1246.jpg	45	43	1	y	2	0	895.28	0.35	0.38	141.4072	140.0236	0.89528
MRI_faces_121	1	1	1	1	30	149.0238	2089.jpg	2194.jpg	53	49	1	b	2	1	1082.11	0.3	0.32	150.6061	149.0238	1.08211
MRI_faces_121	1	1	1	1	31	153.0238	1262.jpg	2110.jpg	18	11	1	y	1	0	915.18	0.6	0.71	154.4237	153.0238	0.91518
MRI_faces_121	1	1	1	1	32	157.0239	2110.jpg	2229.jpg	11	12	0	b	1	0	1042.01	0.71	0.69	158.5576	157.0239	1.04201
MRI_faces_121	1	1	1	1	33	160.0242	1146.jpg	1262.jpg	14	18	0	y	1	1	909.7	0.68	0.6	161.4246	160.0242	0.9097
MRI_faces_121	1	1	1	1	34	163.0247	1255.jpg	1191.jpg	13	9	1	b	1	1	944.23	0.69	0.77	164.4585	163.0247	0.94423
MRI_faces_121	1	1	1	1	35	173.0241	2181.jpg	2229.jpg	8	12	0	y	1	1	894.82	0.77	0.69	174.4102	173.0241	0.89482
MRI_faces_121	1	1	1	1	36	177.0241	2058.jpg	1246.jpg	52	43	1	y	2	0	884.84	0.3	0.38	178.4076	177.0241	0.88484
MRI_faces_121	1	1	1	1	37	185.0242	2041.jpg	2155.jpg	51	47	0	y	2	1	917.7	0.3	0.34	186.441	185.0242	0.9177
MRI_faces_121	1	1	1	1	38	188.0243	1262.jpg	1052.jpg	18	16	1	b	1	1	1040.63	0.6	0.63	189.5629	188.0243	1.04063
