"subjectID","scanner","order","block","run","trial","onsettime","ImageLeft","ImageRight","bidIndexLeft","bidIndexRight","IsleftGo","Response","PairType","Outcome","RT","bidLeft","bidRight","FixationTime","PairType2"
"MRI_faces_102",1,2,1,1,1,2.012678,"1019.jpg","1192.jpg",43,47,1,"y",2,0,1222.56,0.35,0.29,3.747178,"Low_Value"
"MRI_faces_102",1,2,1,1,2,9.012877,"1035.jpg","1262.jpg",7,11,0,"b",1,0,1006.37,0.79,0.73,10.52965,"High_Value"
"MRI_faces_102",1,2,1,1,3,22.01435,"1192.jpg","2149.jpg",47,46,0,"y",2,1,1039.89,0.29,0.29,23.56317,"Low_Value"
"MRI_faces_102",1,2,1,1,4,26.01702,"2153.jpg","1216.jpg",12,16,0,"b",1,0,873.23,0.72,0.68,27.39658,"High_Value"
"MRI_faces_102",1,2,1,1,5,31.0159,"1027.jpg","1013.jpg",48,45,1,"b",2,1,1046.36,0.28,0.29,32.56631,"Low_Value"
"MRI_faces_102",1,2,1,1,6,34.01663,"1173.jpg","1130.jpg",54,44,1,"y",2,0,995.63,0.21,0.35,35.51683,"Low_Value"
"MRI_faces_102",1,2,1,1,7,39.01736,"2153.jpg","2015.jpg",12,14,0,"b",1,0,1262.9,0.72,0.7,40.78442,"High_Value"
"MRI_faces_102",1,2,1,1,8,43.01805,"1130.jpg","1127.jpg",44,51,0,"b",2,0,1308.22,0.35,0.24,44.83025,"Low_Value"
"MRI_faces_102",1,2,1,1,9,52.01969,"1019.jpg","1013.jpg",43,45,1,"y",2,0,1166.56,0.35,0.29,53.68682,"Low_Value"
"MRI_faces_102",1,2,1,1,10,57.02053,"2010.jpg","2089.jpg",8,15,1,"b",1,1,1187.72,0.77,0.68,58.70431,"High_Value"
"MRI_faces_102",1,2,1,1,11,61.02116,"2181.jpg","2248.jpg",9,13,1,"y",1,0,1216.09,0.76,0.72,62.73833,"High_Value"
"MRI_faces_102",1,2,1,1,12,68.02236,"2015.jpg","2212.jpg",14,10,1,"y",1,0,1003.88,0.7,0.75,69.52273,"High_Value"
"MRI_faces_102",1,2,1,1,13,72.02313,"2212.jpg","2181.jpg",10,9,0,"y",1,1,1069.11,0.75,0.76,73.59013,"High_Value"
"MRI_faces_102",1,2,1,1,14,78.02412,"1246.jpg","1114.jpg",55,6,0,"y",4,1,960.13,0.21,0.82,79.48055,"Sanity"
"MRI_faces_102",1,2,1,1,15,83.01384,"2212.jpg","1031.jpg",10,17,0,"b",1,0,891.42,0.75,0.67,84.41405,"High_Value"
"MRI_faces_102",1,2,1,1,16,87.01394,"1192.jpg","1027.jpg",47,48,0,"y",2,1,847.32,0.29,0.28,88.36418,"Low_Value"
"MRI_faces_102",1,2,1,1,17,90.01397,"2181.jpg","2153.jpg",9,12,1,"b",1,1,1330.28,0.76,0.72,91.84746,"High_Value"
"MRI_faces_102",1,2,1,1,18,93.01394,"1019.jpg","2045.jpg",43,50,1,"y",2,0,948.32,0.35,0.24,94.46414,"Low_Value"
"MRI_faces_102",1,2,1,1,19,97.01409,"2089.jpg","1216.jpg",15,16,0,"y",1,1,1087.16,0.68,0.68,98.61135,"High_Value"
"MRI_faces_102",1,2,1,1,20,110.0142,"2015.jpg","2248.jpg",14,13,1,"y",1,0,1115.02,0.7,0.72,111.631,"High_Value"
"MRI_faces_102",1,2,1,1,21,114.0144,"1035.jpg","2015.jpg",7,14,0,"b",1,0,1471.91,0.79,0.7,115.9809,"High_Value"
"MRI_faces_102",1,2,1,1,22,117.0143,"1127.jpg","2045.jpg",51,50,1,"y",2,0,786.99,0.24,0.24,118.2979,"Low_Value"
"MRI_faces_102",1,2,1,1,23,122.0151,"1019.jpg","1060.jpg",43,52,1,"y",2,0,832.13,0.35,0.24,123.3488,"Low_Value"
"MRI_faces_102",1,2,1,1,24,125.0156,"2153.jpg","1262.jpg",12,11,0,"b",1,0,815.62,0.72,0.73,126.3327,"High_Value"
"MRI_faces_102",1,2,1,1,25,129.0164,"1150.jpg","1027.jpg",53,48,0,"y",2,1,770.84,0.22,0.28,130.2833,"Low_Value"
"MRI_faces_102",1,2,1,1,26,135.0174,"2010.jpg","1035.jpg",8,7,1,"b",1,1,1090.86,0.77,0.79,136.6147,"High_Value"
"MRI_faces_102",1,2,1,1,27,138.0178,"1052.jpg","1192.jpg",49,47,1,"b",2,1,1187.47,0.28,0.29,139.7018,"Low_Value"
"MRI_faces_102",1,2,1,1,28,142.0187,"1262.jpg","2212.jpg",11,10,1,"y",1,0,775.59,0.73,0.75,143.2981,"High_Value"
"MRI_faces_102",1,2,1,1,29,147.0194,"1013.jpg","1127.jpg",45,51,0,"y",2,1,1047.79,0.29,0.24,148.5699,"Low_Value"
"MRI_faces_102",1,2,1,1,30,151.0202,"2149.jpg","2045.jpg",46,50,1,"y",2,0,934.03,0.29,0.24,152.4539,"Low_Value"
"MRI_faces_102",1,2,1,1,31,163.0222,"1191.jpg","1262.jpg",18,11,0,"y",1,1,1066,0.66,0.73,164.5893,"High_Value"
"MRI_faces_102",1,2,1,1,32,169.0233,"1052.jpg","1130.jpg",49,44,1,"y",2,0,1015.92,0.28,0.35,170.5403,"Low_Value"
"MRI_faces_102",1,2,1,1,33,172.0239,"2089.jpg","2181.jpg",15,9,0,"b",1,0,1291.36,0.68,0.76,173.8151,"High_Value"
"MRI_faces_102",1,2,1,1,34,176.0245,"2149.jpg","1130.jpg",46,44,1,"y",2,0,925.71,0.29,0.35,177.4486,"Low_Value"
"MRI_faces_102",1,2,1,1,35,179.0151,"1246.jpg","2118.jpg",55,5,0,"y",4,1,914.12,0.21,0.85,180.4319,"Sanity"
"MRI_faces_102",1,2,1,1,36,182.0255,"1150.jpg","1052.jpg",53,49,0,"y",2,1,1037.74,0.22,0.28,183.5593,"Low_Value"
"MRI_faces_102",1,2,1,1,37,185.0151,"1031.jpg","2089.jpg",17,15,1,"y",1,0,1214.12,0.67,0.68,186.732,"High_Value"
"MRI_faces_102",1,2,1,1,38,188.0266,"1013.jpg","2149.jpg",45,46,0,"y",2,1,853.7,0.29,0.29,189.3769,"Low_Value"
"MRI_faces_102",1,2,1,2,1,2.014913,"2212.jpg","1216.jpg",10,16,0,"y",1,1,974.58,0.75,0.68,3.490558,"High_Value"
"MRI_faces_102",1,2,1,2,2,6.022732,"1127.jpg","1150.jpg",51,53,1,"b",2,1,1173.77,0.24,0.22,7.689524,"Low_Value"
"MRI_faces_102",1,2,1,2,3,9.016166,"2181.jpg","1035.jpg",9,7,1,"b",1,1,789.34,0.76,0.79,10.30623,"High_Value"
"MRI_faces_102",1,2,1,2,4,14.02284,"1019.jpg","1130.jpg",43,44,1,"y",2,0,926.65,0.35,0.35,15.43965,"Low_Value"
"MRI_faces_102",1,2,1,2,5,17.01755,"1027.jpg","2045.jpg",48,50,1,"y",2,0,875.93,0.28,0.24,18.38978,"Low_Value"
"MRI_faces_102",1,2,1,2,6,20.01797,"2153.jpg","2010.jpg",12,8,0,"b",1,0,697.53,0.72,0.77,21.20641,"High_Value"
"MRI_faces_102",1,2,1,2,7,34.02315,"1192.jpg","1173.jpg",47,54,0,"y",2,1,876.36,0.29,0.21,35.39003,"Low_Value"
"MRI_faces_102",1,2,1,2,8,38.02321,"1216.jpg","1191.jpg",16,18,1,"b",1,1,1040.3,0.68,0.66,39.55669,"High_Value"
"MRI_faces_102",1,2,1,2,9,42.02324,"2118.jpg","2110.jpg",5,56,1,"b",4,1,1083.24,0.85,0.16,43.59015,"Sanity"
"MRI_faces_102",1,2,1,2,10,45.00666,"2149.jpg","1060.jpg",46,52,1,"y",2,0,930.83,0.29,0.24,46.44018,"Low_Value"
"MRI_faces_102",1,2,1,2,11,48.00667,"1114.jpg","2110.jpg",6,56,1,"b",4,1,814.84,0.82,0.16,49.32356,"Sanity"
"MRI_faces_102",1,2,1,2,12,53.00723,"1027.jpg","1060.jpg",48,52,1,"b",2,1,1375.3,0.28,0.24,54.89102,"Low_Value"
"MRI_faces_102",1,2,1,2,13,56.00954,"2045.jpg","1052.jpg",50,49,0,"y",2,1,906.97,0.24,0.28,57.42484,"Low_Value"
"MRI_faces_102",1,2,1,2,14,66.00956,"1060.jpg","1127.jpg",52,51,0,"y",2,1,993.93,0.24,0.24,67.5099,"Low_Value"
"MRI_faces_102",1,2,1,2,15,72.01052,"2015.jpg","1191.jpg",14,18,1,"b",1,1,850.96,0.7,0.66,73.36095,"High_Value"
"MRI_faces_102",1,2,1,2,16,75.01109,"1060.jpg","1052.jpg",52,49,0,"b",2,0,1256.44,0.24,0.28,76.77395,"Low_Value"
"MRI_faces_102",1,2,1,2,17,79.01173,"2010.jpg","1191.jpg",8,18,1,"b",1,1,791.77,0.77,0.66,80.31214,"High_Value"
"MRI_faces_102",1,2,1,2,18,84.01273,"1035.jpg","1031.jpg",7,17,0,"b",1,0,751.74,0.79,0.67,85.26299,"High_Value"
"MRI_faces_102",1,2,1,2,19,91.01389,"1150.jpg","2149.jpg",53,46,0,"y",2,1,786.6,0.22,0.29,92.30761,"Low_Value"
"MRI_faces_102",1,2,1,2,20,96.01477,"2010.jpg","2212.jpg",8,10,1,"b",1,1,959.71,0.77,0.75,97.47419,"High_Value"
"MRI_faces_102",1,2,1,2,21,99.01523,"1216.jpg","1035.jpg",16,7,1,"y",1,0,1181.26,0.68,0.79,100.699,"High_Value"
"MRI_faces_102",1,2,1,2,22,105.0163,"1150.jpg","1019.jpg",53,43,0,"b",2,0,1091.17,0.22,0.35,106.6077,"Low_Value"
"MRI_faces_102",1,2,1,2,23,109.017,"1031.jpg","2153.jpg",17,12,1,"y",1,0,863.48,0.67,0.72,110.3744,"High_Value"
"MRI_faces_102",1,2,1,2,24,121.019,"1191.jpg","1031.jpg",18,17,0,"y",1,1,1110.44,0.66,0.67,122.6246,"High_Value"
"MRI_faces_102",1,2,1,2,25,124.0197,"2248.jpg","1216.jpg",13,16,0,"y",1,1,1338.78,0.72,0.68,125.858,"High_Value"
"MRI_faces_102",1,2,1,2,26,127.0078,"2089.jpg","1262.jpg",15,11,0,"b",1,0,1079.68,0.68,0.73,128.5912,"High_Value"
"MRI_faces_102",1,2,1,2,27,131.0078,"2248.jpg","1262.jpg",13,11,0,"b",1,0,1039.64,0.72,0.73,132.558,"High_Value"
"MRI_faces_102",1,2,1,2,28,137.0079,"2010.jpg","2248.jpg",8,13,1,"y",1,0,1147.53,0.77,0.72,138.6581,"High_Value"
"MRI_faces_102",1,2,1,2,29,140.0079,"1013.jpg","1173.jpg",45,54,0,"b",2,0,1104.56,0.29,0.21,141.6248,"Low_Value"
"MRI_faces_102",1,2,1,2,30,149.0081,"1173.jpg","1150.jpg",54,53,1,"y",2,0,1022.41,0.21,0.22,150.5416,"Low_Value"
"MRI_faces_102",1,2,1,2,31,153.0082,"2015.jpg","2089.jpg",14,15,1,"y",1,0,1061.26,0.7,0.68,154.575,"High_Value"
"MRI_faces_102",1,2,1,2,32,157.0087,"1060.jpg","1173.jpg",52,54,0,"b",2,0,1080.78,0.24,0.21,158.5924,"Low_Value"
"MRI_faces_102",1,2,1,2,33,160.0108,"2248.jpg","1031.jpg",13,17,0,"b",1,0,1369.66,0.72,0.67,161.8764,"High_Value"
"MRI_faces_102",1,2,1,2,34,163.0097,"1127.jpg","1192.jpg",51,47,1,"b",2,1,1043.75,0.24,0.29,164.5601,"Low_Value"
"MRI_faces_102",1,2,1,2,35,173.0114,"1013.jpg","1052.jpg",45,49,0,"b",2,0,1251.05,0.29,0.28,174.7619,"Low_Value"
"MRI_faces_102",1,2,1,2,36,177.0122,"2045.jpg","1173.jpg",50,54,0,"y",2,1,896.3,0.24,0.21,178.4126,"Low_Value"
"MRI_faces_102",1,2,1,2,37,185.0135,"2181.jpg","1191.jpg",9,18,1,"b",1,1,806.95,0.76,0.66,186.3255,"High_Value"
"MRI_faces_102",1,2,1,2,38,188.0153,"1130.jpg","1027.jpg",44,48,0,"b",2,0,1120.15,0.35,0.28,189.6313,"Low_Value"
"MRI_faces_102",1,2,2,1,1,2.021594,"1013.jpg","1019.jpg",45,43,0,"b",2,0,1091.32,0.29,0.35,3.606092,"Low_Value"
"MRI_faces_102",1,2,2,1,2,6.021592,"2153.jpg","1216.jpg",12,16,0,"b",1,0,896.31,0.72,0.68,7.415449,"High_Value"
"MRI_faces_102",1,2,2,1,3,9.015618,"2153.jpg","2010.jpg",12,8,0,"b",1,0,655.29,0.72,0.77,10.17195,"High_Value"
"MRI_faces_102",1,2,2,1,4,14.02176,"1013.jpg","2149.jpg",45,46,0,"b",2,0,1176.13,0.29,0.29,15.68853,"Low_Value"
"MRI_faces_102",1,2,2,1,5,17.0171,"2248.jpg","1031.jpg",13,17,0,"b",1,0,997.79,0.72,0.67,18.51746,"High_Value"
"MRI_faces_102",1,2,2,1,6,20.02186,"1031.jpg","2153.jpg",17,12,1,"y",1,0,1019.03,0.67,0.72,21.53862,"High_Value"
"MRI_faces_102",1,2,2,1,7,34.02199,"2015.jpg","1035.jpg",14,7,1,"y",1,0,1178.94,0.7,0.79,35.68905,"High_Value"
"MRI_faces_102",1,2,2,1,8,38.02213,"2149.jpg","1060.jpg",46,52,1,"y",2,0,801.78,0.29,0.24,39.32219,"Low_Value"
"MRI_faces_102",1,2,2,1,9,42.02217,"2212.jpg","2015.jpg",10,14,0,"y",1,1,1101.74,0.75,0.7,43.62182,"High_Value"
"MRI_faces_102",1,2,2,1,10,45.00562,"1052.jpg","1060.jpg",49,52,1,"b",2,1,1030.27,0.28,0.24,46.53899,"Low_Value"
"MRI_faces_102",1,2,2,1,11,48.00802,"2149.jpg","1150.jpg",46,53,1,"y",2,0,780.89,0.29,0.22,49.28948,"Low_Value"
"MRI_faces_102",1,2,2,1,12,53.00671,"1052.jpg","1013.jpg",49,45,1,"x",2,NA,999000,0.28,0.29,55.00725,"Low_Value"
"MRI_faces_102",1,2,2,1,13,56.02242,"1127.jpg","1192.jpg",51,47,1,"b",2,1,898.49,0.24,0.29,57.40772,"Low_Value"
"MRI_faces_102",1,2,2,1,14,66.00899,"1262.jpg","1035.jpg",11,7,1,"y",1,0,815.91,0.73,0.79,67.32599,"High_Value"
"MRI_faces_102",1,2,2,1,15,72.01012,"2089.jpg","2010.jpg",15,8,0,"b",1,0,715.76,0.68,0.77,73.22709,"High_Value"
"MRI_faces_102",1,2,2,1,16,75.01054,"1114.jpg","1246.jpg",6,55,1,"y",4,0,940.37,0.82,0.21,76.46092,"Sanity"
"MRI_faces_102",1,2,2,1,17,79.01122,"1262.jpg","2212.jpg",11,10,1,"y",1,0,690.69,0.73,0.75,80.20612,"High_Value"
"MRI_faces_102",1,2,2,1,18,84.02272,"2181.jpg","1035.jpg",9,7,1,"b",1,1,659.19,0.76,0.79,85.17916,"High_Value"
"MRI_faces_102",1,2,2,1,19,91.01333,"1192.jpg","2149.jpg",47,46,0,"y",2,1,678.58,0.29,0.29,92.19701,"Low_Value"
"MRI_faces_102",1,2,2,1,20,96.01418,"2045.jpg","1052.jpg",50,49,0,"y",2,1,863.72,0.24,0.28,97.38121,"Low_Value"
"MRI_faces_102",1,2,2,1,21,99.01473,"2212.jpg","1216.jpg",10,16,0,"y",1,1,1034.18,0.75,0.68,100.5484,"High_Value"
"MRI_faces_102",1,2,2,1,22,105.0159,"1191.jpg","2015.jpg",18,14,0,"y",1,1,834.04,0.66,0.7,106.3495,"High_Value"
"MRI_faces_102",1,2,2,1,23,109.0165,"1191.jpg","1031.jpg",18,17,0,"b",1,0,1004.35,0.66,0.67,110.5233,"High_Value"
"MRI_faces_102",1,2,2,1,24,121.0186,"1130.jpg","2149.jpg",44,46,0,"b",2,0,834.35,0.35,0.29,122.3523,"Low_Value"
"MRI_faces_102",1,2,2,1,25,124.0233,"1031.jpg","2212.jpg",17,10,1,"y",1,0,942.61,0.67,0.75,125.4568,"High_Value"
"MRI_faces_102",1,2,2,1,26,127.0197,"1130.jpg","1019.jpg",44,43,0,"b",2,0,887.2,0.35,0.35,128.4068,"Low_Value"
"MRI_faces_102",1,2,2,1,27,131.0203,"1130.jpg","1027.jpg",44,48,0,"b",2,0,895.58,0.35,0.28,132.4068,"Low_Value"
"MRI_faces_102",1,2,2,1,28,137.0069,"1173.jpg","2045.jpg",54,50,1,"b",2,1,749.08,0.21,0.24,138.257,"Low_Value"
"MRI_faces_102",1,2,2,1,29,140.0073,"2248.jpg","1216.jpg",13,16,0,"b",1,0,630.64,0.72,0.68,141.1403,"High_Value"
"MRI_faces_102",1,2,2,1,30,149.007,"1192.jpg","1173.jpg",47,54,0,"b",2,0,811.92,0.29,0.21,150.3239,"Low_Value"
"MRI_faces_102",1,2,2,1,31,153.0075,"2118.jpg","2110.jpg",5,56,1,"b",4,1,945.4,0.85,0.16,154.4581,"Sanity"
"MRI_faces_102",1,2,2,1,32,157.0082,"1262.jpg","2089.jpg",11,15,1,"y",1,0,941.71,0.73,0.68,158.4586,"High_Value"
"MRI_faces_102",1,2,2,1,33,160.0089,"2015.jpg","2248.jpg",14,13,1,"y",1,0,1005.04,0.7,0.72,161.5239,"High_Value"
"MRI_faces_102",1,2,2,1,34,163.0094,"2181.jpg","2248.jpg",9,13,1,"b",1,1,860.59,0.76,0.72,164.3763,"High_Value"
"MRI_faces_102",1,2,2,1,35,173.0109,"2045.jpg","2149.jpg",50,46,0,"b",2,0,1112.99,0.24,0.29,174.6281,"Low_Value"
"MRI_faces_102",1,2,2,1,36,177.0117,"1127.jpg","1130.jpg",51,44,1,"y",2,0,707.17,0.24,0.35,178.2242,"Low_Value"
"MRI_faces_102",1,2,2,1,37,185.013,"1150.jpg","1027.jpg",53,48,0,"b",2,0,930.91,0.22,0.28,186.4468,"Low_Value"
"MRI_faces_102",1,2,2,1,38,188.0153,"1173.jpg","1130.jpg",54,44,1,"y",2,0,777.57,0.21,0.35,189.2973,"Low_Value"
"MRI_faces_102",1,2,2,2,1,2.013737,"2248.jpg","1262.jpg",13,11,0,"b",1,0,753.78,0.72,0.73,3.264996,"High_Value"
"MRI_faces_102",1,2,2,2,2,6.01434,"1013.jpg","1173.jpg",45,54,0,"y",2,1,808.13,0.29,0.21,7.326747,"Low_Value"
"MRI_faces_102",1,2,2,2,3,9.014846,"1052.jpg","1130.jpg",49,44,1,"y",2,0,1027.66,0.28,0.35,10.54865,"Low_Value"
"MRI_faces_102",1,2,2,2,4,14.01574,"1035.jpg","2010.jpg",7,8,0,"b",1,0,704.74,0.79,0.77,15.21617,"High_Value"
"MRI_faces_102",1,2,2,2,5,17.01626,"2089.jpg","2015.jpg",15,14,0,"y",1,1,715.22,0.68,0.7,18.23331,"High_Value"
"MRI_faces_102",1,2,2,2,6,20.01678,"1127.jpg","2045.jpg",51,50,1,"b",2,1,1053.71,0.24,0.24,21.56719,"Low_Value"
"MRI_faces_102",1,2,2,2,7,34.01929,"1052.jpg","1192.jpg",49,47,1,"b",2,1,1035.2,0.28,0.29,35.55304,"Low_Value"
"MRI_faces_102",1,2,2,2,8,38.01994,"1027.jpg","2045.jpg",48,50,1,"b",2,1,1014.55,0.28,0.24,39.52723,"Low_Value"
"MRI_faces_102",1,2,2,2,9,42.02076,"1013.jpg","1127.jpg",45,51,0,"y",2,1,1165.74,0.29,0.24,43.67729,"Low_Value"
"MRI_faces_102",1,2,2,2,10,45.01056,"2010.jpg","1191.jpg",8,18,1,"b",1,1,737.93,0.77,0.66,46.25494,"High_Value"
"MRI_faces_102",1,2,2,2,11,48.01066,"1191.jpg","1262.jpg",18,11,0,"b",1,0,1127.83,0.66,0.73,49.6441,"High_Value"
"MRI_faces_102",1,2,2,2,12,53.01077,"2118.jpg","1246.jpg",5,55,1,"b",4,1,794.72,0.85,0.21,54.31078,"Sanity"
"MRI_faces_102",1,2,2,2,13,56.01072,"1127.jpg","1150.jpg",51,53,1,"b",2,1,918.75,0.24,0.22,57.44014,"Low_Value"
"MRI_faces_102",1,2,2,2,14,66.01085,"1031.jpg","1035.jpg",17,7,1,"y",1,0,1053.64,0.67,0.79,67.57528,"High_Value"
"MRI_faces_102",1,2,2,2,15,72.011,"1013.jpg","1027.jpg",45,48,0,"b",2,0,1217.49,0.29,0.28,73.72777,"Low_Value"
"MRI_faces_102",1,2,2,2,16,75.01095,"1150.jpg","1052.jpg",53,49,0,"y",2,1,964.53,0.22,0.28,76.47785,"Low_Value"
"MRI_faces_102",1,2,2,2,17,79.01103,"2181.jpg","1191.jpg",9,18,1,"b",1,1,674.45,0.76,0.66,80.19453,"High_Value"
"MRI_faces_102",1,2,2,2,18,84.01145,"2089.jpg","2181.jpg",15,9,0,"y",1,1,723.03,0.68,0.76,85.22812,"High_Value"
"MRI_faces_102",1,2,2,2,19,91.01264,"2248.jpg","2010.jpg",13,8,0,"y",1,1,1094.85,0.72,0.77,92.61294,"High_Value"
"MRI_faces_102",1,2,2,2,20,96.01343,"1027.jpg","1060.jpg",48,52,1,"b",2,1,1211.06,0.28,0.24,97.73056,"Low_Value"
"MRI_faces_102",1,2,2,2,21,99.01404,"2212.jpg","2010.jpg",10,8,0,"y",1,1,976.47,0.75,0.77,100.4978,"High_Value"
"MRI_faces_102",1,2,2,2,22,105.0151,"1216.jpg","1035.jpg",16,7,1,"y",1,0,1121.42,0.68,0.79,106.6321,"High_Value"
"MRI_faces_102",1,2,2,2,23,109.0158,"1150.jpg","1019.jpg",53,43,0,"b",2,0,1038.72,0.22,0.35,110.5494,"Low_Value"
"MRI_faces_102",1,2,2,2,24,121.0178,"1060.jpg","1019.jpg",52,43,0,"y",2,1,898.7,0.24,0.35,122.4182,"Low_Value"
"MRI_faces_102",1,2,2,2,25,124.0184,"1262.jpg","2153.jpg",11,12,1,"y",1,0,797.05,0.73,0.72,125.3118,"High_Value"
"MRI_faces_102",1,2,2,2,26,127.0189,"1216.jpg","1191.jpg",16,18,1,"b",1,1,768.64,0.68,0.66,128.2859,"High_Value"
"MRI_faces_102",1,2,2,2,27,131.0195,"2089.jpg","1216.jpg",15,16,0,"b",1,0,816.98,0.68,0.68,132.3366,"High_Value"
"MRI_faces_102",1,2,2,2,28,137.0206,"1150.jpg","1173.jpg",53,54,0,"b",2,0,821.94,0.22,0.21,138.3376,"Low_Value"
"MRI_faces_102",1,2,2,2,29,140.0212,"1127.jpg","1060.jpg",51,52,1,"b",2,1,929.29,0.24,0.24,141.4454,"Low_Value"
"MRI_faces_102",1,2,2,2,30,149.012,"1192.jpg","1027.jpg",47,48,0,"y",2,1,923.48,0.29,0.28,150.4455,"Low_Value"
"MRI_faces_102",1,2,2,2,31,153.012,"2153.jpg","2015.jpg",12,14,0,"b",1,0,1216.42,0.72,0.7,154.7288,"High_Value"
"MRI_faces_102",1,2,2,2,32,157.0122,"1173.jpg","1060.jpg",54,52,1,"y",2,0,806.32,0.21,0.24,158.3244,"Low_Value"
"MRI_faces_102",1,2,2,2,33,160.0137,"1019.jpg","1192.jpg",43,47,1,"y",2,0,904.82,0.35,0.29,161.425,"Low_Value"
"MRI_faces_102",1,2,2,2,34,163.0123,"2110.jpg","1114.jpg",56,6,0,"y",4,1,1054.23,0.16,0.82,164.5755,"Sanity"
"MRI_faces_102",1,2,2,2,35,173.0123,"1031.jpg","2089.jpg",17,15,1,"y",1,0,878.2,0.67,0.68,174.3958,"High_Value"
"MRI_faces_102",1,2,2,2,36,177.0123,"2045.jpg","1019.jpg",50,43,0,"y",2,1,932.15,0.24,0.35,178.4459,"Low_Value"
"MRI_faces_102",1,2,2,2,37,185.0125,"2181.jpg","2153.jpg",9,12,1,"b",1,1,1280.97,0.76,0.72,186.7961,"High_Value"
"MRI_faces_102",1,2,2,2,38,188.0146,"2181.jpg","2212.jpg",9,10,1,"b",1,1,601.9,0.76,0.75,189.1131,"High_Value"
"MRI_faces_104",1,2,1,1,1,2.027722,"2058.jpg","2063.jpg",18,8,0,"y",1,1,713.17,0.66,0.8,3.231193,"High_Value"
"MRI_faces_104",1,2,1,1,2,6.028478,"1145.jpg","2058.jpg",11,18,1,"y",1,0,874.41,0.75,0.66,7.396738,"High_Value"
"MRI_faces_104",1,2,1,1,3,9.028971,"1210.jpg","2181.jpg",47,46,0,"b",2,0,966.94,0.28,0.3,10.47982,"Low_Value"
"MRI_faces_104",1,2,1,1,4,14.01335,"1130.jpg","1145.jpg",13,11,0,"y",1,1,991.55,0.74,0.75,15.51359,"High_Value"
"MRI_faces_104",1,2,1,1,5,17.01371,"1210.jpg","2053.jpg",47,54,0,"b",2,0,906.19,0.28,0.19,18.43072,"Low_Value"
"MRI_faces_104",1,2,1,1,6,20.01685,"1202.jpg","1145.jpg",15,11,0,"b",1,0,675.08,0.69,0.75,21.19797,"High_Value"
"MRI_faces_104",1,2,1,1,7,34.01676,"1019.jpg","1246.jpg",12,9,0,"y",1,1,839.16,0.75,0.8,35.36715,"High_Value"
"MRI_faces_104",1,2,1,1,8,38.01743,"2053.jpg","2041.jpg",54,53,1,"b",2,1,546.49,0.19,0.2,39.06771,"Low_Value"
"MRI_faces_104",1,2,1,1,9,42.0181,"1019.jpg","2063.jpg",12,8,0,"y",1,1,421.81,0.75,0.8,42.94728,"High_Value"
"MRI_faces_104",1,2,1,1,10,45.01872,"2125.jpg","1017.jpg",51,44,1,"b",2,1,496.19,0.22,0.37,46.01891,"Low_Value"
"MRI_faces_104",1,2,1,1,11,48.01912,"1210.jpg","1226.jpg",47,49,0,"y",2,1,500.81,0.28,0.24,49.01941,"Low_Value"
"MRI_faces_104",1,2,1,1,12,53.02007,"2181.jpg","2155.jpg",46,52,1,"y",2,0,605.81,0.3,0.21,54.13066,"Low_Value"
"MRI_faces_104",1,2,1,1,13,56.02036,"2063.jpg","1202.jpg",8,15,1,"b",1,1,588.57,0.8,0.69,57.11415,"High_Value"
"MRI_faces_104",1,2,1,1,14,66.02229,"2164.jpg","2053.jpg",45,54,0,"b",2,0,855.61,0.33,0.19,67.3809,"Low_Value"
"MRI_faces_104",1,2,1,1,15,72.02332,"1027.jpg","2164.jpg",48,45,1,"y",2,0,605.61,0.28,0.33,73.13081,"Low_Value"
"MRI_faces_104",1,2,1,1,16,75.02382,"1019.jpg","2110.jpg",12,14,0,"y",1,1,741.08,0.75,0.69,76.26448,"High_Value"
"MRI_faces_104",1,2,1,1,17,79.02457,"1210.jpg","1027.jpg",47,48,0,"y",2,1,621.33,0.28,0.28,80.14782,"Low_Value"
"MRI_faces_104",1,2,1,1,18,84.02551,"2153.jpg","2058.jpg",17,18,1,"b",1,1,640.42,0.67,0.66,85.16464,"High_Value"
"MRI_faces_104",1,2,1,1,19,91.02668,"1019.jpg","1145.jpg",12,11,0,"b",1,0,722.23,0.75,0.75,92.24806,"High_Value"
"MRI_faces_104",1,2,1,1,20,96.02751,"1017.jpg","1226.jpg",44,49,0,"y",2,1,893.4,0.37,0.24,97.41465,"Low_Value"
"MRI_faces_104",1,2,1,1,21,99.02803,"2149.jpg","1255.jpg",55,5,0,"b",4,0,871.88,0.18,0.82,100.398,"Sanity"
"MRI_faces_104",1,2,1,1,22,105.0147,"2015.jpg","2248.jpg",16,7,1,"b",1,1,890.13,0.67,0.8,106.4149,"High_Value"
"MRI_faces_104",1,2,1,1,23,109.0148,"2041.jpg","1027.jpg",53,48,0,"y",2,1,873.14,0.2,0.28,110.3982,"Low_Value"
"MRI_faces_104",1,2,1,1,24,121.0152,"2181.jpg","2041.jpg",46,53,1,"b",2,1,806.69,0.3,0.2,122.3323,"Low_Value"
"MRI_faces_104",1,2,1,1,25,124.0182,"2209.jpg","2125.jpg",50,51,0,"b",2,0,960.73,0.22,0.22,125.4828,"Low_Value"
"MRI_faces_104",1,2,1,1,26,127.0163,"1262.jpg","2041.jpg",43,53,1,"y",2,0,891.6,0.37,0.2,128.4168,"Low_Value"
"MRI_faces_104",1,2,1,1,27,131.0169,"2125.jpg","2164.jpg",51,45,1,"y",2,0,1028.01,0.22,0.33,132.5507,"Low_Value"
"MRI_faces_104",1,2,1,1,28,137.018,"2125.jpg","2155.jpg",51,52,1,"y",2,0,1023.85,0.22,0.21,138.5517,"Low_Value"
"MRI_faces_104",1,2,1,1,29,140.0187,"2248.jpg","2110.jpg",7,14,0,"y",1,1,1001.26,0.8,0.69,141.5189,"High_Value"
"MRI_faces_104",1,2,1,1,30,149.0201,"2015.jpg","1031.jpg",16,10,1,"b",1,1,594.84,0.67,0.76,150.1204,"High_Value"
"MRI_faces_104",1,2,1,1,31,153.0208,"2181.jpg","2164.jpg",46,45,1,"y",2,0,905.08,0.3,0.33,154.4321,"Low_Value"
"MRI_faces_104",1,2,1,1,32,157.0215,"1031.jpg","2063.jpg",10,8,0,"b",1,0,786.45,0.76,0.8,158.3052,"High_Value"
"MRI_faces_104",1,2,1,1,33,160.022,"2015.jpg","2058.jpg",16,18,1,"b",1,1,876.92,0.67,0.66,161.4057,"High_Value"
"MRI_faces_104",1,2,1,1,34,163.0226,"1262.jpg","2209.jpg",43,50,1,"y",2,0,1115.32,0.37,0.22,164.6396,"Low_Value"
"MRI_faces_104",1,2,1,1,35,173.0243,"2149.jpg","1216.jpg",55,6,0,"y",4,1,892.62,0.18,0.81,174.4157,"Sanity"
"MRI_faces_104",1,2,1,1,36,177.025,"2063.jpg","2248.jpg",8,7,1,"b",1,1,1009.88,0.8,0.8,178.5325,"High_Value"
"MRI_faces_104",1,2,1,1,37,185.0264,"2110.jpg","1202.jpg",14,15,1,"b",1,1,741.59,0.69,0.69,186.2659,"High_Value"
"MRI_faces_104",1,2,1,1,38,188.0269,"1145.jpg","2248.jpg",11,7,1,"y",1,0,837.97,0.75,0.8,189.3659,"High_Value"
"MRI_faces_104",1,2,1,2,1,2.032365,"2209.jpg","1027.jpg",50,48,0,"b",2,0,808.7,0.22,0.28,3.342338,"Low_Value"
"MRI_faces_104",1,2,1,2,2,5.032842,"1031.jpg","1145.jpg",10,11,0,"b",1,0,788.22,0.76,0.75,6.316604,"High_Value"
"MRI_faces_104",1,2,1,2,3,8.03334,"1017.jpg","1262.jpg",44,43,0,"y",2,1,886.74,0.37,0.37,9.417094,"Low_Value"
"MRI_faces_104",1,2,1,2,4,13.0342,"1130.jpg","2110.jpg",13,14,0,"y",1,1,887.87,0.74,0.69,14.41797,"High_Value"
"MRI_faces_104",1,2,1,2,5,18.03509,"1027.jpg","2155.jpg",48,52,1,"b",2,1,960.99,0.28,0.21,19.4918,"Low_Value"
"MRI_faces_104",1,2,1,2,6,25.02508,"1246.jpg","1130.jpg",9,13,1,"b",1,1,929.98,0.8,0.74,26.45851,"High_Value"
"MRI_faces_104",1,2,1,2,7,29.02524,"2053.jpg","1017.jpg",54,44,1,"b",2,1,762.78,0.19,0.37,30.29196,"Low_Value"
"MRI_faces_104",1,2,1,2,8,32.02518,"2155.jpg","1226.jpg",52,49,0,"b",2,0,882.92,0.21,0.24,33.40866,"Low_Value"
"MRI_faces_104",1,2,1,2,9,39.02526,"2209.jpg","2181.jpg",50,46,0,"b",2,0,911.81,0.22,0.3,40.44205,"Low_Value"
"MRI_faces_104",1,2,1,2,10,43.02534,"2063.jpg","1130.jpg",8,13,1,"b",1,1,772.73,0.8,0.74,44.30884,"High_Value"
"MRI_faces_104",1,2,1,2,11,46.02533,"2209.jpg","1226.jpg",50,49,0,"b",2,0,774.72,0.22,0.24,47.30892,"Low_Value"
"MRI_faces_104",1,2,1,2,12,50.02544,"1255.jpg","2194.jpg",5,56,1,"b",4,1,966.62,0.82,0.16,51.49225,"Sanity"
"MRI_faces_104",1,2,1,2,13,54.02549,"1031.jpg","2153.jpg",10,17,0,"b",1,0,940.54,0.76,0.67,55.47568,"High_Value"
"MRI_faces_104",1,2,1,2,14,59.02567,"1246.jpg","1202.jpg",9,15,1,"b",1,1,966.38,0.8,0.69,60.49275,"High_Value"
"MRI_faces_104",1,2,1,2,15,63.02639,"2164.jpg","1226.jpg",45,49,0,"b",2,0,940.66,0.33,0.24,64.4599,"Low_Value"
"MRI_faces_104",1,2,1,2,16,67.02701,"1226.jpg","2041.jpg",49,53,1,"b",2,1,783.03,0.24,0.2,68.31074,"Low_Value"
"MRI_faces_104",1,2,1,2,17,70.02762,"2041.jpg","2125.jpg",53,51,0,"y",2,1,1091.46,0.2,0.22,71.62585,"Low_Value"
"MRI_faces_104",1,2,1,2,18,80.02934,"2194.jpg","1216.jpg",56,6,0,"y",4,1,1072.72,0.16,0.81,81.59651,"Sanity"
"MRI_faces_104",1,2,1,2,19,84.03004,"2153.jpg","1019.jpg",17,12,1,"b",1,1,1100.03,0.67,0.75,85.63051,"High_Value"
"MRI_faces_104",1,2,1,2,20,87.03059,"2015.jpg","1130.jpg",16,13,1,"b",1,1,877.49,0.67,0.74,88.4095,"High_Value"
"MRI_faces_104",1,2,1,2,21,90.03113,"2053.jpg","2155.jpg",54,52,1,"y",2,0,871.95,0.19,0.21,91.39816,"Low_Value"
"MRI_faces_104",1,2,1,2,22,94.03175,"2058.jpg","2110.jpg",18,14,0,"y",1,1,814.32,0.66,0.69,95.34881,"High_Value"
"MRI_faces_104",1,2,1,2,23,100.0328,"1017.jpg","1027.jpg",44,48,0,"y",2,1,1044.27,0.37,0.28,101.5763,"Low_Value"
"MRI_faces_104",1,2,1,2,24,103.0333,"1246.jpg","2058.jpg",9,18,1,"y",1,0,845.75,0.8,0.66,104.3764,"High_Value"
"MRI_faces_104",1,2,1,2,25,106.0336,"1031.jpg","1246.jpg",10,9,0,"b",1,0,766.43,0.76,0.8,107.3009,"High_Value"
"MRI_faces_104",1,2,1,2,26,110.0346,"2153.jpg","1202.jpg",17,15,1,"b",1,1,794.48,0.67,0.69,111.3264,"High_Value"
"MRI_faces_104",1,2,1,2,27,113.0351,"2125.jpg","1210.jpg",51,47,1,"x",2,NA,999000,0.22,0.28,115.0356,"Low_Value"
"MRI_faces_104",1,2,1,2,28,116.0356,"2015.jpg","1019.jpg",16,12,1,"b",1,1,606.45,0.67,0.75,117.1359,"High_Value"
"MRI_faces_104",1,2,1,2,29,130.0265,"1202.jpg","2015.jpg",15,16,0,"y",1,1,642.54,0.69,0.67,131.1767,"High_Value"
"MRI_faces_104",1,2,1,2,30,140.0267,"2155.jpg","1262.jpg",52,43,0,"b",2,0,727.42,0.21,0.37,141.2602,"Low_Value"
"MRI_faces_104",1,2,1,2,31,146.0268,"2110.jpg","1031.jpg",14,10,1,"b",1,1,589.3,0.69,0.76,147.1246,"High_Value"
"MRI_faces_104",1,2,1,2,32,150.0268,"1017.jpg","2181.jpg",44,46,0,"y",2,1,677.26,0.37,0.3,151.2103,"Low_Value"
"MRI_faces_104",1,2,1,2,33,156.027,"2153.jpg","1130.jpg",17,13,1,"b",1,1,587.06,0.67,0.74,157.1104,"High_Value"
"MRI_faces_104",1,2,1,2,34,160.0269,"2209.jpg","2053.jpg",50,54,0,"b",2,0,679.16,0.22,0.19,161.2104,"Low_Value"
"MRI_faces_104",1,2,1,2,35,166.0277,"1246.jpg","2248.jpg",9,7,1,"b",1,1,746.38,0.8,0.8,167.2781,"High_Value"
"MRI_faces_104",1,2,1,2,36,178.0298,"2153.jpg","2248.jpg",17,7,1,"b",1,1,723.23,0.67,0.8,179.2467,"High_Value"
"MRI_faces_104",1,2,1,2,37,181.0303,"1262.jpg","2164.jpg",43,45,1,"b",2,1,611.76,0.37,0.33,182.1472,"Low_Value"
"MRI_faces_104",1,2,1,2,38,188.0315,"1210.jpg","1262.jpg",47,43,0,"b",2,0,971.54,0.28,0.37,189.4986,"Low_Value"
"MRI_faces_104",1,2,2,1,1,2.027097,"1017.jpg","2181.jpg",44,46,0,"y",2,1,839.67,0.37,0.3,3.361899,"Low_Value"
"MRI_faces_104",1,2,2,1,2,6.02791,"2041.jpg","1262.jpg",53,43,0,"b",2,0,347.83,0.2,0.37,6.872641,"Low_Value"
"MRI_faces_104",1,2,2,1,3,9.028361,"2015.jpg","1130.jpg",16,13,1,"y",1,0,347.41,0.67,0.74,9.872667,"High_Value"
"MRI_faces_104",1,2,2,1,4,14.02931,"1262.jpg","2155.jpg",43,52,1,"b",2,1,319.42,0.37,0.21,14.84614,"Low_Value"
"MRI_faces_104",1,2,2,1,5,17.02266,"1226.jpg","2164.jpg",49,45,1,"y",2,0,525.1,0.24,0.33,18.04695,"Low_Value"
"MRI_faces_104",1,2,2,1,6,20.02282,"1130.jpg","1246.jpg",13,9,0,"b",1,0,400.92,0.74,0.8,20.93061,"High_Value"
"MRI_faces_104",1,2,2,1,7,34.02299,"2248.jpg","1145.jpg",7,11,0,"y",1,1,688.76,0.8,0.75,35.21657,"High_Value"
"MRI_faces_104",1,2,2,1,8,38.023,"1017.jpg","1262.jpg",44,43,0,"b",2,0,343.73,0.37,0.37,38.8671,"Low_Value"
"MRI_faces_104",1,2,2,1,9,42.02313,"2041.jpg","1226.jpg",53,49,0,"b",2,0,417.59,0.2,0.24,42.93991,"Low_Value"
"MRI_faces_104",1,2,2,1,10,45.02313,"1216.jpg","2194.jpg",6,56,1,"b",4,1,579.57,0.81,0.16,46.10661,"Sanity"
"MRI_faces_104",1,2,2,1,11,48.0231,"2110.jpg","2058.jpg",14,18,1,"b",1,1,814.66,0.69,0.66,49.34001,"High_Value"
"MRI_faces_104",1,2,2,1,12,53.02321,"1202.jpg","2153.jpg",15,17,0,"y",1,1,951.53,0.69,0.67,54.47339,"High_Value"
"MRI_faces_104",1,2,2,1,13,56.02325,"2063.jpg","1202.jpg",8,15,1,"b",1,1,644.47,0.8,0.69,57.17024,"High_Value"
"MRI_faces_104",1,2,2,1,14,66.02347,"1027.jpg","1210.jpg",48,47,1,"b",2,1,892.26,0.28,0.28,67.40657,"Low_Value"
"MRI_faces_104",1,2,2,1,15,72.02346,"2153.jpg","2248.jpg",17,7,1,"b",1,1,980.26,0.67,0.8,73.50692,"High_Value"
"MRI_faces_104",1,2,2,1,16,75.02351,"1226.jpg","2209.jpg",49,50,1,"y",2,0,756.26,0.24,0.22,76.27368,"Low_Value"
"MRI_faces_104",1,2,2,1,17,79.02401,"1017.jpg","1027.jpg",44,48,0,"b",2,0,557.72,0.37,0.28,80.07434,"Low_Value"
"MRI_faces_104",1,2,2,1,18,84.02491,"2058.jpg","2153.jpg",18,17,0,"b",1,0,659.86,0.66,0.67,85.17532,"High_Value"
"MRI_faces_104",1,2,2,1,19,91.0261,"2041.jpg","1027.jpg",53,48,0,"y",2,1,608.67,0.2,0.28,92.1264,"Low_Value"
"MRI_faces_104",1,2,2,1,20,96.02685,"2015.jpg","1202.jpg",16,15,1,"b",1,1,519.92,0.67,0.69,97.04396,"High_Value"
"MRI_faces_104",1,2,2,1,21,99.02745,"2181.jpg","1210.jpg",46,47,1,"b",2,1,485.27,0.3,0.28,100.011,"Low_Value"
"MRI_faces_104",1,2,2,1,22,105.0285,"2153.jpg","1130.jpg",17,13,1,"y",1,0,584.3,0.67,0.74,106.1122,"High_Value"
"MRI_faces_104",1,2,2,1,23,109.0293,"1145.jpg","1130.jpg",11,13,1,"y",1,0,845.42,0.75,0.74,110.3743,"High_Value"
"MRI_faces_104",1,2,2,1,24,121.0242,"2125.jpg","2164.jpg",51,45,1,"b",2,1,561.6,0.22,0.33,122.091,"Low_Value"
"MRI_faces_104",1,2,2,1,25,124.0243,"2058.jpg","2015.jpg",18,16,0,"y",1,1,614.45,0.66,0.67,125.141,"High_Value"
"MRI_faces_104",1,2,2,1,26,127.0242,"1210.jpg","2125.jpg",47,51,0,"b",2,0,802.5,0.28,0.22,128.3244,"Low_Value"
"MRI_faces_104",1,2,2,1,27,131.0244,"2053.jpg","1210.jpg",54,47,1,"y",2,0,592.38,0.19,0.28,132.1167,"Low_Value"
"MRI_faces_104",1,2,2,1,28,137.0243,"1262.jpg","2209.jpg",43,50,1,"b",2,1,641.41,0.37,0.22,138.168,"Low_Value"
"MRI_faces_104",1,2,2,1,29,140.0244,"1210.jpg","1226.jpg",47,49,0,"b",2,0,856.31,0.28,0.24,141.385,"Low_Value"
"MRI_faces_104",1,2,2,1,30,149.0246,"2248.jpg","2015.jpg",7,16,0,"y",1,1,760.16,0.8,0.67,150.2867,"High_Value"
"MRI_faces_104",1,2,2,1,31,153.0245,"2110.jpg","1019.jpg",14,12,1,"b",1,1,627.24,0.69,0.75,154.1539,"High_Value"
"MRI_faces_104",1,2,2,1,32,157.0247,"2149.jpg","1255.jpg",55,5,0,"b",4,0,753.04,0.18,0.82,158.2747,"Sanity"
"MRI_faces_104",1,2,2,1,33,160.0247,"2155.jpg","2181.jpg",52,46,0,"b",2,0,811.02,0.21,0.3,161.3385,"Low_Value"
"MRI_faces_104",1,2,2,1,34,163.0247,"2041.jpg","2053.jpg",53,54,0,"b",2,0,762.06,0.2,0.19,164.2916,"Low_Value"
"MRI_faces_104",1,2,2,1,35,173.0248,"2110.jpg","1130.jpg",14,13,1,"b",1,1,471.93,0.69,0.74,173.9917,"High_Value"
"MRI_faces_104",1,2,2,1,36,177.0249,"1130.jpg","2063.jpg",13,8,0,"y",1,1,673.88,0.74,0.8,178.1919,"High_Value"
"MRI_faces_104",1,2,2,1,37,185.0259,"2110.jpg","1202.jpg",14,15,1,"b",1,1,472.84,0.69,0.69,185.9927,"High_Value"
"MRI_faces_104",1,2,2,1,38,188.0262,"1202.jpg","1145.jpg",15,11,0,"b",1,0,711.49,0.69,0.75,189.2267,"High_Value"
"MRI_faces_104",1,2,2,2,1,2.02792,"1019.jpg","2015.jpg",12,16,0,"y",1,1,675.07,0.75,0.67,3.195692,"High_Value"
"MRI_faces_104",1,2,2,2,2,6.027989,"1027.jpg","2155.jpg",48,52,1,"b",2,1,801.99,0.28,0.21,7.328009,"Low_Value"
"MRI_faces_104",1,2,2,2,3,13.02805,"1210.jpg","1262.jpg",47,43,0,"b",2,0,670.94,0.28,0.37,14.19489,"Low_Value"
"MRI_faces_104",1,2,2,2,4,16.02803,"2063.jpg","1031.jpg",8,10,1,"b",1,1,584.96,0.8,0.76,17.11148,"High_Value"
"MRI_faces_104",1,2,2,2,5,21.02814,"1246.jpg","2058.jpg",9,18,1,"y",1,0,701.84,0.8,0.66,22.22823,"High_Value"
"MRI_faces_104",1,2,2,2,6,31.02826,"1027.jpg","2164.jpg",48,45,1,"b",2,1,675.75,0.28,0.33,32.19528,"Low_Value"
"MRI_faces_104",1,2,2,2,7,34.0283,"1017.jpg","1226.jpg",44,49,0,"y",2,1,766.69,0.37,0.24,35.29589,"Low_Value"
"MRI_faces_104",1,2,2,2,8,37.0284,"2155.jpg","2053.jpg",52,54,0,"y",2,1,964.58,0.21,0.19,38.47975,"Low_Value"
"MRI_faces_104",1,2,2,2,9,46.02847,"1246.jpg","1031.jpg",9,10,1,"y",1,0,702.52,0.8,0.76,47.23117,"High_Value"
"MRI_faces_104",1,2,2,2,10,49.01467,"1226.jpg","2155.jpg",49,52,1,"b",2,1,577.3,0.24,0.21,50.09842,"Low_Value"
"MRI_faces_104",1,2,2,2,11,59.02862,"2125.jpg","1017.jpg",51,44,1,"y",2,0,838.37,0.22,0.37,60.36684,"Low_Value"
"MRI_faces_104",1,2,2,2,12,64.02877,"1145.jpg","2058.jpg",11,18,1,"y",1,0,831.22,0.75,0.66,65.35104,"High_Value"
"MRI_faces_104",1,2,2,2,13,69.0182,"2209.jpg","2125.jpg",50,51,0,"y",2,1,872.83,0.22,0.22,70.40188,"Low_Value"
"MRI_faces_104",1,2,2,2,14,77.02895,"2053.jpg","1017.jpg",54,44,1,"y",2,0,830.03,0.19,0.37,78.35331,"Low_Value"
"MRI_faces_104",1,2,2,2,15,84.02086,"2041.jpg","2181.jpg",53,46,0,"y",2,1,934.13,0.2,0.3,85.4625,"Low_Value"
"MRI_faces_104",1,2,2,2,16,88.02156,"2058.jpg","2063.jpg",18,8,0,"y",1,1,713.42,0.66,0.8,89.23845,"High_Value"
"MRI_faces_104",1,2,2,2,17,91.02202,"1019.jpg","2063.jpg",12,8,0,"y",1,1,798.96,0.75,0.8,92.32237,"High_Value"
"MRI_faces_104",1,2,2,2,18,96.02286,"1145.jpg","1019.jpg",11,12,1,"y",1,0,874.12,0.75,0.75,97.39602,"High_Value"
"MRI_faces_104",1,2,2,2,19,99.02347,"2153.jpg","1031.jpg",17,10,1,"b",1,1,851.56,0.67,0.76,100.3793,"High_Value"
"MRI_faces_104",1,2,2,2,20,107.0248,"1202.jpg","1246.jpg",15,9,0,"b",1,0,689.22,0.69,0.8,108.2128,"High_Value"
"MRI_faces_104",1,2,2,2,21,113.0259,"2149.jpg","1216.jpg",55,6,0,"y",4,1,814.07,0.18,0.81,114.3429,"Sanity"
"MRI_faces_104",1,2,2,2,22,118.0268,"2164.jpg","2181.jpg",45,46,0,"y",2,1,807.22,0.33,0.3,119.3297,"Low_Value"
"MRI_faces_104",1,2,2,2,23,123.0277,"2125.jpg","2155.jpg",51,52,1,"b",2,1,662.31,0.22,0.21,124.1795,"Low_Value"
"MRI_faces_104",1,2,2,2,24,126.0279,"1262.jpg","2164.jpg",43,45,1,"y",2,0,774.05,0.37,0.33,127.2963,"Low_Value"
"MRI_faces_104",1,2,2,2,25,140.0165,"1246.jpg","2248.jpg",9,7,1,"y",1,0,717.48,0.8,0.8,141.2465,"High_Value"
"MRI_faces_104",1,2,2,2,26,143.0145,"1145.jpg","1031.jpg",11,10,1,"y",1,0,924.49,0.75,0.76,144.4481,"High_Value"
"MRI_faces_104",1,2,2,2,27,147.0151,"2248.jpg","2063.jpg",7,8,0,"y",1,1,716.86,0.8,0.8,148.2323,"High_Value"
"MRI_faces_104",1,2,2,2,28,151.0158,"2041.jpg","2125.jpg",53,51,0,"b",2,0,906.17,0.2,0.22,152.433,"Low_Value"
"MRI_faces_104",1,2,2,2,29,154.0164,"2209.jpg","1027.jpg",50,48,0,"b",2,0,850.61,0.22,0.28,155.3801,"Low_Value"
"MRI_faces_104",1,2,2,2,30,157.0168,"1019.jpg","2153.jpg",12,17,0,"y",1,1,692.17,0.75,0.67,158.2172,"High_Value"
"MRI_faces_104",1,2,2,2,31,163.0179,"1019.jpg","1246.jpg",12,9,0,"y",1,1,397.08,0.75,0.8,163.9183,"High_Value"
"MRI_faces_104",1,2,2,2,32,169.019,"2181.jpg","2209.jpg",46,50,1,"y",2,0,968.99,0.3,0.22,170.497,"Low_Value"
"MRI_faces_104",1,2,2,2,33,172.0301,"2194.jpg","1255.jpg",56,5,0,"b",4,0,915.86,0.16,0.82,173.4366,"Sanity"
"MRI_faces_104",1,2,2,2,34,175.02,"2110.jpg","1031.jpg",14,10,1,"b",1,1,660.04,0.69,0.76,176.1869,"High_Value"
"MRI_faces_104",1,2,2,2,35,179.0206,"2164.jpg","2053.jpg",45,54,0,"b",2,0,740.36,0.33,0.19,180.2637,"Low_Value"
"MRI_faces_104",1,2,2,2,36,182.0212,"2110.jpg","2248.jpg",14,7,1,"b",1,1,527.82,0.69,0.8,183.055,"High_Value"
"MRI_faces_104",1,2,2,2,37,185.0217,"2209.jpg","2053.jpg",50,54,0,"b",2,0,749.26,0.22,0.19,186.2721,"Low_Value"
"MRI_faces_104",1,2,2,2,38,188.0304,"2015.jpg","1031.jpg",16,10,1,"b",1,1,597.6,0.67,0.76,189.1225,"High_Value"
"MRI_faces_105",1,1,1,1,1,2.017373,"1226.jpg","1216.jpg",17,12,0,"b",1,0,942.56,0.68,0.71,3.466984,"High_Value"
"MRI_faces_105",1,1,1,1,2,6.018099,"1204.jpg","2024.jpg",54,44,0,"y",2,1,1163.89,0.2,0.38,7.683485,"Low_Value"
"MRI_faces_105",1,1,1,1,3,9.01691,"2218.jpg","2118.jpg",15,8,1,"y",1,0,947.03,0.7,0.76,10.46724,"High_Value"
"MRI_faces_105",1,1,1,1,4,14.01785,"2153.jpg","1017.jpg",46,45,0,"y",2,1,991.1,0.3,0.36,15.51833,"Low_Value"
"MRI_faces_105",1,1,1,1,5,17.01833,"2089.jpg","1204.jpg",50,54,1,"b",2,1,843.64,0.27,0.2,18.36882,"Low_Value"
"MRI_faces_105",1,1,1,1,6,20.01878,"2053.jpg","1226.jpg",7,17,1,"b",1,1,850.18,0.78,0.68,21.36922,"High_Value"
"MRI_faces_105",1,1,1,1,7,34.02125,"2153.jpg","2112.jpg",46,53,0,"y",2,1,1157.69,0.3,0.23,35.6817,"Low_Value"
"MRI_faces_105",1,1,1,1,8,38.02197,"1114.jpg","1216.jpg",11,12,0,"b",1,0,972.98,0.73,0.71,39.49842,"High_Value"
"MRI_faces_105",1,1,1,1,9,42.02266,"1017.jpg","1146.jpg",45,43,1,"x",2,NA,999000,0.36,0.39,44.0231,"Low_Value"
"MRI_faces_105",1,1,1,1,10,45.02319,"2240.jpg","1013.jpg",18,14,1,"y",1,0,920.76,0.67,0.7,46.44853,"High_Value"
"MRI_faces_105",1,1,1,1,11,48.02374,"1226.jpg","2218.jpg",17,15,0,"b",1,0,759.26,0.68,0.7,49.28185,"High_Value"
"MRI_faces_105",1,1,1,1,12,53.02456,"1013.jpg","2218.jpg",14,15,0,"b",1,0,650.39,0.7,0.7,54.17497,"High_Value"
"MRI_faces_105",1,1,1,1,13,56.02511,"1013.jpg","1127.jpg",14,10,0,"b",1,0,777.85,0.7,0.75,57.29866,"High_Value"
"MRI_faces_105",1,1,1,1,14,66.02689,"2128.jpg","1019.jpg",48,47,0,"y",2,1,866.06,0.28,0.28,67.39391,"Low_Value"
"MRI_faces_105",1,1,1,1,15,72.02797,"2229.jpg","1017.jpg",51,45,0,"y",2,1,1011.97,0.23,0.36,73.5322,"Low_Value"
"MRI_faces_105",1,1,1,1,16,75.0284,"2118.jpg","1127.jpg",8,10,0,"b",1,0,648.56,0.76,0.75,76.16573,"High_Value"
"MRI_faces_105",1,1,1,1,17,79.02923,"1146.jpg","2024.jpg",43,44,0,"y",2,1,1034.71,0.39,0.38,80.56289,"Low_Value"
"MRI_faces_105",1,1,1,1,18,84.03001,"1226.jpg","1127.jpg",17,10,0,"b",1,0,802.94,0.68,0.75,85.33245,"High_Value"
"MRI_faces_105",1,1,1,1,19,91.01539,"2039.jpg","2128.jpg",52,48,1,"y",2,0,736.57,0.23,0.28,92.26585,"Low_Value"
"MRI_faces_105",1,1,1,1,20,96.01571,"2058.jpg","1192.jpg",55,5,0,"y",4,1,896.24,0.19,0.82,97.41585,"Sanity"
"MRI_faces_105",1,1,1,1,21,99.01595,"2128.jpg","2024.jpg",48,44,0,"b",2,0,777.01,0.28,0.38,100.2996,"Low_Value"
"MRI_faces_105",1,1,1,1,22,105.0171,"2053.jpg","1114.jpg",7,11,1,"b",1,1,609.84,0.78,0.73,106.134,"High_Value"
"MRI_faces_105",1,1,1,1,23,109.0177,"2218.jpg","1114.jpg",15,11,1,"y",1,0,810.26,0.7,0.73,110.3349,"High_Value"
"MRI_faces_105",1,1,1,1,24,121.0198,"2053.jpg","2063.jpg",7,16,1,"b",1,1,498.11,0.78,0.69,122.0201,"High_Value"
"MRI_faces_105",1,1,1,1,25,124.0205,"1216.jpg","2118.jpg",12,8,1,"y",1,0,698.49,0.71,0.76,125.2207,"High_Value"
"MRI_faces_105",1,1,1,1,26,127.0209,"2094.jpg","2118.jpg",13,8,1,"b",1,1,1060.03,0.71,0.76,128.5879,"High_Value"
"MRI_faces_105",1,1,1,1,27,131.0216,"2089.jpg","1146.jpg",50,43,1,"y",2,0,914.32,0.27,0.39,132.4386,"Low_Value"
"MRI_faces_105",1,1,1,1,28,137.0227,"2024.jpg","2229.jpg",44,51,1,"b",2,1,625.29,0.38,0.23,138.1499,"Low_Value"
"MRI_faces_105",1,1,1,1,29,140.0232,"2153.jpg","2024.jpg",46,44,0,"y",2,1,732.76,0.3,0.38,141.257,"Low_Value"
"MRI_faces_105",1,1,1,1,30,149.0247,"1019.jpg","2229.jpg",47,51,1,"b",2,1,968.26,0.28,0.23,150.4917,"Low_Value"
"MRI_faces_105",1,1,1,1,31,153.0254,"2112.jpg","1204.jpg",53,54,1,"y",2,0,768.54,0.23,0.2,154.2923,"Low_Value"
"MRI_faces_105",1,1,1,1,32,157.0261,"1017.jpg","1204.jpg",45,54,1,"y",2,0,936.81,0.36,0.2,158.4598,"Low_Value"
"MRI_faces_105",1,1,1,1,33,160.0266,"1192.jpg","2045.jpg",5,56,1,"b",4,1,863.34,0.82,0.18,161.3937,"Sanity"
"MRI_faces_105",1,1,1,1,34,163.0271,"2039.jpg","1204.jpg",52,54,1,"y",2,0,1372.82,0.23,0.2,164.9001,"Low_Value"
"MRI_faces_105",1,1,1,1,35,173.0289,"2218.jpg","1262.jpg",15,9,1,"y",1,0,1066.08,0.7,0.75,174.5837,"High_Value"
"MRI_faces_105",1,1,1,1,36,177.0295,"2118.jpg","2240.jpg",8,18,0,"b",1,0,681.44,0.76,0.67,178.2004,"High_Value"
"MRI_faces_105",1,1,1,1,37,185.0169,"2153.jpg","2039.jpg",46,52,0,"b",2,0,1012.01,0.3,0.23,186.5338,"Low_Value"
"MRI_faces_105",1,1,1,1,38,188.017,"1013.jpg","1216.jpg",14,12,0,"b",1,0,858.98,0.7,0.71,189.3838,"High_Value"
"MRI_faces_105",1,1,1,2,1,2.017884,"1204.jpg","1019.jpg",54,47,0,"y",2,1,777.38,0.2,0.28,3.298428,"Low_Value"
"MRI_faces_105",1,1,1,2,2,6.017946,"2063.jpg","2094.jpg",16,13,0,"y",1,1,821.34,0.69,0.71,7.334739,"High_Value"
"MRI_faces_105",1,1,1,2,3,13.01816,"2063.jpg","1216.jpg",16,12,0,"b",1,0,905.1,0.69,0.71,14.41828,"High_Value"
"MRI_faces_105",1,1,1,2,4,16.01812,"1262.jpg","2240.jpg",9,18,0,"y",1,1,1004.15,0.75,0.67,17.51824,"High_Value"
"MRI_faces_105",1,1,1,2,5,21.01826,"2128.jpg","2112.jpg",48,53,0,"b",2,0,915.01,0.28,0.23,22.43505,"Low_Value"
"MRI_faces_105",1,1,1,2,6,31.01872,"2039.jpg","2229.jpg",52,51,1,"y",2,0,909.56,0.23,0.23,32.41906,"Low_Value"
"MRI_faces_105",1,1,1,2,7,34.02167,"1013.jpg","2053.jpg",14,7,0,"y",1,1,762.58,0.7,0.78,35.2862,"High_Value"
"MRI_faces_105",1,1,1,2,8,37.01968,"2112.jpg","1146.jpg",53,43,1,"y",2,0,991.59,0.23,0.39,38.5035,"Low_Value"
"MRI_faces_105",1,1,1,2,9,46.02211,"2094.jpg","1226.jpg",13,17,1,"b",1,1,691.17,0.71,0.68,47.20499,"High_Value"
"MRI_faces_105",1,1,1,2,10,49.02186,"2128.jpg","2089.jpg",48,50,0,"b",2,0,845.42,0.28,0.27,50.36881,"Low_Value"
"MRI_faces_105",1,1,1,2,11,59.01884,"2240.jpg","2063.jpg",18,16,1,"y",1,0,992.44,0.67,0.69,60.5073,"High_Value"
"MRI_faces_105",1,1,1,2,12,64.0188,"2089.jpg","1060.jpg",50,49,1,"b",2,1,964.48,0.27,0.28,65.48563,"Low_Value"
"MRI_faces_105",1,1,1,2,13,69.01895,"1060.jpg","2112.jpg",49,53,0,"y",2,1,933.33,0.28,0.23,70.45237,"Low_Value"
"MRI_faces_105",1,1,1,2,14,77.01906,"2063.jpg","1127.jpg",16,10,0,"b",1,0,931.23,0.69,0.75,78.45246,"High_Value"
"MRI_faces_105",1,1,1,2,15,84.01896,"2024.jpg","1060.jpg",44,49,1,"b",2,1,871.32,0.38,0.28,85.39504,"Low_Value"
"MRI_faces_105",1,1,1,2,16,88.01896,"1017.jpg","2128.jpg",45,48,1,"y",2,0,791.33,0.36,0.28,89.31239,"Low_Value"
"MRI_faces_105",1,1,1,2,17,91.01927,"1146.jpg","1019.jpg",43,47,0,"b",2,0,987,0.39,0.28,92.50271,"Low_Value"
"MRI_faces_105",1,1,1,2,18,96.01912,"2089.jpg","2229.jpg",50,51,1,"b",2,1,1070.14,0.27,0.23,97.58615,"Low_Value"
"MRI_faces_105",1,1,1,2,19,99.01932,"1060.jpg","2039.jpg",49,52,0,"b",2,0,1038.97,0.28,0.23,100.5528,"Low_Value"
"MRI_faces_105",1,1,1,2,20,107.0192,"1114.jpg","2094.jpg",11,13,0,"y",1,1,911.02,0.73,0.71,108.4324,"High_Value"
"MRI_faces_105",1,1,1,2,21,113.0196,"2240.jpg","1226.jpg",18,17,1,"b",1,1,838.71,0.67,0.68,114.3531,"High_Value"
"MRI_faces_105",1,1,1,2,22,118.0196,"2053.jpg","1262.jpg",7,9,1,"b",1,1,949.66,0.78,0.75,119.4697,"High_Value"
"MRI_faces_105",1,1,1,2,23,123.0197,"2118.jpg","2053.jpg",8,7,0,"y",1,1,1110.58,0.76,0.78,124.6198,"High_Value"
"MRI_faces_105",1,1,1,2,24,126.0196,"1216.jpg","1262.jpg",12,9,1,"b",1,1,1342.64,0.71,0.75,127.8531,"High_Value"
"MRI_faces_105",1,1,1,2,25,140.021,"2058.jpg","2181.jpg",55,6,0,"y",4,1,959.28,0.19,0.82,141.4714,"Sanity"
"MRI_faces_105",1,1,1,2,26,143.0216,"1019.jpg","1060.jpg",47,49,1,"b",2,1,1059.74,0.28,0.28,144.572,"Low_Value"
"MRI_faces_105",1,1,1,2,27,147.0223,"1127.jpg","1262.jpg",10,9,1,"y",1,0,745,0.75,0.75,148.2559,"High_Value"
"MRI_faces_105",1,1,1,2,28,151.0229,"2039.jpg","1146.jpg",52,43,1,"y",2,0,954.35,0.23,0.39,152.4734,"Low_Value"
"MRI_faces_105",1,1,1,2,29,154.0235,"2089.jpg","2153.jpg",50,46,1,"b",2,1,1069.8,0.27,0.3,155.5906,"Low_Value"
"MRI_faces_105",1,1,1,2,30,157.0201,"1127.jpg","1114.jpg",10,11,1,"b",1,1,978.18,0.75,0.73,158.4911,"High_Value"
"MRI_faces_105",1,1,1,2,31,163.0202,"1013.jpg","2094.jpg",14,13,0,"y",1,1,963.11,0.7,0.71,164.4755,"High_Value"
"MRI_faces_105",1,1,1,2,32,169.0202,"1114.jpg","2240.jpg",11,18,0,"b",1,0,1185.04,0.73,0.67,170.7037,"High_Value"
"MRI_faces_105",1,1,1,2,33,172.0203,"1060.jpg","1017.jpg",49,45,0,"y",2,1,1132.01,0.28,0.36,173.6537,"Low_Value"
"MRI_faces_105",1,1,1,2,34,175.0204,"2153.jpg","1019.jpg",46,47,0,"b",2,0,927.91,0.3,0.28,176.4442,"Low_Value"
"MRI_faces_105",1,1,1,2,35,179.0204,"2112.jpg","2229.jpg",53,51,1,"y",2,0,844.83,0.23,0.23,180.3616,"Low_Value"
"MRI_faces_105",1,1,1,2,36,182.0205,"1262.jpg","2094.jpg",9,13,0,"y",1,1,785.83,0.75,0.71,183.3039,"High_Value"
"MRI_faces_105",1,1,1,2,37,185.0204,"2218.jpg","2063.jpg",15,16,1,"y",1,0,824.86,0.7,0.69,186.346,"High_Value"
"MRI_faces_105",1,1,1,2,38,188.0205,"2181.jpg","2045.jpg",6,56,1,"b",4,1,681.78,0.82,0.18,189.204,"Sanity"
"MRI_faces_105",1,1,2,1,1,2.032082,"2229.jpg","2039.jpg",51,52,0,"b",2,0,951.25,0.23,0.23,3.483303,"Low_Value"
"MRI_faces_105",1,1,2,1,2,6.032237,"2240.jpg","1114.jpg",18,11,1,"b",1,1,1000.14,0.67,0.73,7.532298,"High_Value"
"MRI_faces_105",1,1,2,1,3,9.032199,"2229.jpg","1017.jpg",51,45,0,"y",2,1,1148.14,0.23,0.36,10.68234,"Low_Value"
"MRI_faces_105",1,1,2,1,4,14.03228,"2181.jpg","2058.jpg",6,55,1,"b",4,1,919.07,0.82,0.19,15.44919,"Sanity"
"MRI_faces_105",1,1,2,1,5,17.0324,"1204.jpg","1017.jpg",54,45,0,"y",2,1,898.94,0.2,0.36,18.43245,"Low_Value"
"MRI_faces_105",1,1,2,1,6,20.03245,"2039.jpg","1146.jpg",52,43,1,"y",2,0,822.89,0.23,0.39,21.34922,"Low_Value"
"MRI_faces_105",1,1,2,1,7,34.03262,"2039.jpg","1060.jpg",52,49,1,"y",2,0,1291.73,0.23,0.28,35.8161,"Low_Value"
"MRI_faces_105",1,1,2,1,8,38.03273,"1127.jpg","1114.jpg",10,11,1,"b",1,1,857.61,0.75,0.73,39.38278,"High_Value"
"MRI_faces_105",1,1,2,1,9,42.03279,"1216.jpg","1262.jpg",12,9,1,"y",1,0,823.55,0.71,0.75,43.34951,"High_Value"
"MRI_faces_105",1,1,2,1,10,45.03279,"2053.jpg","1114.jpg",7,11,1,"b",1,1,673.54,0.78,0.73,46.19958,"High_Value"
"MRI_faces_105",1,1,2,1,11,48.03284,"2024.jpg","1146.jpg",44,43,1,"b",2,1,975.51,0.38,0.39,49.49964,"Low_Value"
"MRI_faces_105",1,1,2,1,12,53.03291,"2089.jpg","1060.jpg",50,49,1,"y",2,0,1094.44,0.27,0.28,54.61644,"Low_Value"
"MRI_faces_105",1,1,2,1,13,56.03289,"2118.jpg","2094.jpg",8,13,0,"y",1,1,1092.44,0.76,0.71,57.61639,"High_Value"
"MRI_faces_105",1,1,2,1,14,66.03312,"2153.jpg","2112.jpg",46,53,0,"y",2,1,977.22,0.3,0.23,67.49997,"Low_Value"
"MRI_faces_105",1,1,2,1,15,72.03313,"2063.jpg","2218.jpg",16,15,0,"b",1,0,887.19,0.69,0.7,73.41776,"High_Value"
"MRI_faces_105",1,1,2,1,16,75.01765,"2153.jpg","2039.jpg",46,52,0,"b",2,0,845.68,0.3,0.23,76.36822,"Low_Value"
"MRI_faces_105",1,1,2,1,17,79.03322,"2094.jpg","1226.jpg",13,17,1,"b",1,1,1114.12,0.71,0.68,80.63569,"High_Value"
"MRI_faces_105",1,1,2,1,18,84.02017,"2063.jpg","2053.jpg",16,7,0,"y",1,1,756.2,0.69,0.78,85.28639,"High_Value"
"MRI_faces_105",1,1,2,1,19,91.02066,"1127.jpg","1262.jpg",10,9,1,"b",1,1,1047.63,0.75,0.75,92.57102,"High_Value"
"MRI_faces_105",1,1,2,1,20,96.0214,"1204.jpg","2089.jpg",54,50,0,"b",2,0,740.94,0.2,0.27,97.27181,"Low_Value"
"MRI_faces_105",1,1,2,1,21,99.02202,"1127.jpg","2118.jpg",10,8,1,"y",1,0,877.32,0.75,0.76,100.4057,"High_Value"
"MRI_faces_105",1,1,2,1,22,105.0336,"2128.jpg","1019.jpg",48,47,0,"b",2,0,760.76,0.28,0.28,106.2901,"Low_Value"
"MRI_faces_105",1,1,2,1,23,109.0237,"1127.jpg","1226.jpg",10,17,1,"y",1,0,755.6,0.75,0.68,110.2839,"High_Value"
"MRI_faces_105",1,1,2,1,24,121.0258,"2024.jpg","2229.jpg",44,51,1,"b",2,1,829.53,0.38,0.23,122.3595,"Low_Value"
"MRI_faces_105",1,1,2,1,25,124.0264,"1017.jpg","1146.jpg",45,43,1,"b",2,1,1172.9,0.36,0.39,125.7007,"Low_Value"
"MRI_faces_105",1,1,2,1,26,127.034,"1226.jpg","2218.jpg",17,15,0,"b",1,0,918.4,0.68,0.7,128.4507,"High_Value"
"MRI_faces_105",1,1,2,1,27,131.0276,"2089.jpg","2229.jpg",50,51,1,"b",2,1,1122.7,0.27,0.23,132.6508,"Low_Value"
"MRI_faces_105",1,1,2,1,28,137.0287,"2063.jpg","1216.jpg",16,12,0,"b",1,0,1145.66,0.69,0.71,138.6791,"High_Value"
"MRI_faces_105",1,1,2,1,29,140.0292,"2053.jpg","1013.jpg",7,14,1,"b",1,1,793.18,0.78,0.7,141.3176,"High_Value"
"MRI_faces_105",1,1,2,1,30,149.0307,"1013.jpg","2218.jpg",14,15,0,"b",1,0,999.64,0.7,0.7,150.5311,"High_Value"
"MRI_faces_105",1,1,2,1,31,153.0315,"2058.jpg","1192.jpg",55,5,0,"y",4,1,960.81,0.19,0.82,154.4845,"Sanity"
"MRI_faces_105",1,1,2,1,32,157.0322,"1146.jpg","2089.jpg",43,50,0,"b",2,0,991.14,0.39,0.27,158.5178,"Low_Value"
"MRI_faces_105",1,1,2,1,33,160.0327,"2118.jpg","2218.jpg",8,15,0,"b",1,0,886.61,0.76,0.7,161.4178,"High_Value"
"MRI_faces_105",1,1,2,1,34,163.0332,"2094.jpg","1013.jpg",13,14,1,"b",1,1,936.18,0.71,0.7,164.4679,"High_Value"
"MRI_faces_105",1,1,2,1,35,173.018,"1060.jpg","1017.jpg",49,45,0,"y",2,1,725.31,0.28,0.36,174.252,"Low_Value"
"MRI_faces_105",1,1,2,1,36,177.019,"1204.jpg","2112.jpg",54,53,0,"y",2,1,1034.3,0.2,0.23,178.5527,"Low_Value"
"MRI_faces_105",1,1,2,1,37,185.0204,"2039.jpg","1204.jpg",52,54,1,"b",2,1,877.94,0.23,0.2,186.404,"Low_Value"
"MRI_faces_105",1,1,2,1,38,188.0209,"1114.jpg","2218.jpg",11,15,0,"b",1,0,962.46,0.73,0.7,189.4879,"High_Value"
"MRI_faces_105",1,1,2,2,1,2.018656,"1226.jpg","1216.jpg",17,12,0,"b",1,0,753.91,0.68,0.71,3.267797,"High_Value"
"MRI_faces_105",1,1,2,2,2,9.017521,"1013.jpg","2240.jpg",14,18,0,"y",1,1,661.04,0.7,0.67,10.18459,"High_Value"
"MRI_faces_105",1,1,2,2,3,22.0198,"1017.jpg","2128.jpg",45,48,1,"y",2,0,922.76,0.36,0.28,23.4484,"Low_Value"
"MRI_faces_105",1,1,2,2,4,26.02052,"1019.jpg","1146.jpg",47,43,1,"y",2,0,795.04,0.28,0.39,27.32084,"Low_Value"
"MRI_faces_105",1,1,2,2,5,31.02139,"1019.jpg","1060.jpg",47,49,1,"b",2,1,964.18,0.28,0.28,32.48845,"Low_Value"
"MRI_faces_105",1,1,2,2,6,34.022,"2024.jpg","1060.jpg",44,49,1,"b",2,1,700.58,0.38,0.28,35.2224,"Low_Value"
"MRI_faces_105",1,1,2,2,7,39.02286,"1146.jpg","2112.jpg",43,53,0,"y",2,1,825.69,0.39,0.23,40.3487,"Low_Value"
"MRI_faces_105",1,1,2,2,8,43.02349,"2112.jpg","2229.jpg",53,51,1,"b",2,1,1015.05,0.23,0.23,44.54061,"Low_Value"
"MRI_faces_105",1,1,2,2,9,52.02517,"2039.jpg","2128.jpg",52,48,1,"y",2,0,879.43,0.23,0.28,53.3989,"Low_Value"
"MRI_faces_105",1,1,2,2,10,57.02606,"2053.jpg","2118.jpg",7,8,1,"b",1,1,633.5,0.78,0.76,58.15964,"High_Value"
"MRI_faces_105",1,1,2,2,11,61.02671,"2045.jpg","2181.jpg",56,6,0,"y",4,1,953.85,0.18,0.82,62.47711,"Sanity"
"MRI_faces_105",1,1,2,2,12,68.01558,"2153.jpg","2089.jpg",46,50,0,"b",2,0,927.96,0.3,0.27,69.44912,"Low_Value"
"MRI_faces_105",1,1,2,2,13,72.01567,"1226.jpg","2240.jpg",17,18,0,"b",1,0,648.92,0.68,0.67,73.16589,"High_Value"
"MRI_faces_105",1,1,2,2,14,78.01575,"1204.jpg","2024.jpg",54,44,0,"y",2,1,1003.8,0.2,0.38,79.53001,"Low_Value"
"MRI_faces_105",1,1,2,2,15,83.01589,"2094.jpg","1262.jpg",13,9,1,"b",1,1,583.71,0.71,0.75,84.09927,"High_Value"
"MRI_faces_105",1,1,2,2,16,87.0159,"2118.jpg","1216.jpg",8,12,0,"b",1,0,754.66,0.76,0.71,88.28155,"High_Value"
"MRI_faces_105",1,1,2,2,17,90.01597,"2063.jpg","2094.jpg",16,13,0,"y",1,1,685.61,0.69,0.71,91.19951,"High_Value"
"MRI_faces_105",1,1,2,2,18,93.01594,"2053.jpg","1226.jpg",7,17,1,"b",1,1,586.62,0.78,0.68,94.09949,"High_Value"
"MRI_faces_105",1,1,2,2,19,97.01631,"1204.jpg","1019.jpg",54,47,0,"y",2,1,935.28,0.2,0.28,98.44997,"Low_Value"
"MRI_faces_105",1,1,2,2,20,110.0202,"1262.jpg","2053.jpg",9,7,0,"y",1,1,595.4,0.75,0.78,111.1191,"High_Value"
"MRI_faces_105",1,1,2,2,21,114.0198,"1262.jpg","2218.jpg",9,15,0,"y",1,1,749.81,0.75,0.7,115.2696,"High_Value"
"MRI_faces_105",1,1,2,2,22,117.0198,"2229.jpg","1019.jpg",51,47,0,"y",2,1,1266.76,0.23,0.28,118.7869,"Low_Value"
"MRI_faces_105",1,1,2,2,23,122.0207,"1017.jpg","2153.jpg",45,46,1,"b",2,1,954.88,0.36,0.3,123.471,"Low_Value"
"MRI_faces_105",1,1,2,2,24,125.0212,"1216.jpg","1114.jpg",12,11,1,"b",1,1,917.33,0.71,0.73,126.4383,"High_Value"
"MRI_faces_105",1,1,2,2,25,129.0219,"2153.jpg","1019.jpg",46,47,0,"b",2,0,879.74,0.3,0.28,130.4057,"Low_Value"
"MRI_faces_105",1,1,2,2,26,135.0229,"2128.jpg","2089.jpg",48,50,0,"b",2,0,722.63,0.28,0.27,136.24,"Low_Value"
"MRI_faces_105",1,1,2,2,27,138.0234,"2153.jpg","2024.jpg",46,44,0,"y",2,1,869.18,0.3,0.38,139.3905,"Low_Value"
"MRI_faces_105",1,1,2,2,28,142.0241,"2045.jpg","1192.jpg",56,5,0,"y",4,1,1400.39,0.18,0.82,143.9245,"Sanity"
"MRI_faces_105",1,1,2,2,29,147.0251,"1216.jpg","1013.jpg",12,14,1,"y",1,0,1057.49,0.71,0.7,148.5835,"High_Value"
"MRI_faces_105",1,1,2,2,30,151.0257,"2112.jpg","2128.jpg",53,48,1,"y",2,0,836.86,0.23,0.28,152.3594,"Low_Value"
"MRI_faces_105",1,1,2,2,31,163.017,"1127.jpg","1013.jpg",10,14,1,"y",1,0,952.61,0.75,0.7,164.4782,"High_Value"
"MRI_faces_105",1,1,2,2,32,169.017,"2240.jpg","2063.jpg",18,16,1,"b",1,1,596.53,0.67,0.69,170.1172,"High_Value"
"MRI_faces_105",1,1,2,2,33,172.0171,"1127.jpg","2063.jpg",10,16,1,"y",1,0,979.52,0.75,0.69,173.5005,"High_Value"
"MRI_faces_105",1,1,2,2,34,176.0171,"2240.jpg","1262.jpg",18,9,1,"y",1,0,996.48,0.67,0.75,177.5172,"High_Value"
"MRI_faces_105",1,1,2,2,35,179.0171,"2118.jpg","2240.jpg",8,18,0,"b",1,0,1009.48,0.76,0.67,180.5339,"High_Value"
"MRI_faces_105",1,1,2,2,36,182.0173,"1114.jpg","2094.jpg",11,13,0,"y",1,1,971.32,0.73,0.71,183.4982,"High_Value"
"MRI_faces_105",1,1,2,2,37,185.0172,"2112.jpg","1060.jpg",53,49,1,"b",2,1,1022.4,0.23,0.28,186.5487,"Low_Value"
"MRI_faces_105",1,1,2,2,38,188.0173,"2024.jpg","2128.jpg",44,48,1,"y",2,0,730.31,0.38,0.28,189.2509,"Low_Value"
"MRI_faces_106",1,2,1,1,1,2.02948,"1226.jpg","1145.jpg",9,13,1,"b",1,1,1009.25,0.78,0.76,3.531609,"High_Value"
"MRI_faces_106",1,2,1,1,2,6.013924,"2128.jpg","2024.jpg",47,48,0,"b",2,0,1129.82,0.32,0.3,7.647358,"Low_Value"
"MRI_faces_106",1,2,1,1,3,13.01466,"1007.jpg","2058.jpg",44,51,0,"b",2,0,1095.08,0.36,0.21,14.61504,"Low_Value"
"MRI_faces_106",1,2,1,1,4,16.01527,"1073.jpg","2155.jpg",5,56,1,"b",4,1,1104.47,0.86,0.17,17.63224,"Sanity"
"MRI_faces_106",1,2,1,1,5,21.01612,"2125.jpg","2041.jpg",10,8,0,"b",1,0,898.62,0.78,0.79,22.41652,"High_Value"
"MRI_faces_106",1,2,1,1,6,31.01758,"2058.jpg","2039.jpg",51,53,1,"b",2,1,1105.16,0.21,0.18,32.63105,"Low_Value"
"MRI_faces_106",1,2,1,1,7,34.01845,"2058.jpg","2128.jpg",51,47,1,"y",2,0,1154.27,0.21,0.32,35.68113,"Low_Value"
"MRI_faces_106",1,2,1,1,8,37.01884,"1226.jpg","2125.jpg",9,10,1,"y",1,0,1252.87,0.78,0.78,38.78119,"High_Value"
"MRI_faces_106",1,2,1,1,9,46.02057,"1183.jpg","1060.jpg",50,54,0,"y",2,1,1289.18,0.26,0.18,47.81457,"Low_Value"
"MRI_faces_106",1,2,1,1,10,49.02101,"2209.jpg","1191.jpg",15,11,0,"b",1,0,1289.71,0.73,0.77,50.8148,"High_Value"
"MRI_faces_106",1,2,1,1,11,59.02273,"2024.jpg","1183.jpg",48,50,1,"y",2,0,1428.01,0.3,0.26,60.95667,"Low_Value"
"MRI_faces_106",1,2,1,1,12,64.02371,"1035.jpg","1145.jpg",16,13,1,"b",1,1,1125.02,0.72,0.76,65.64819,"High_Value"
"MRI_faces_106",1,2,1,1,13,69.02448,"1192.jpg","1035.jpg",18,16,0,"b",1,0,1202.27,0.69,0.72,70.73165,"High_Value"
"MRI_faces_106",1,2,1,1,14,77.02589,"1080.jpg","2058.jpg",52,51,0,"y",2,1,1242.86,0.2,0.21,78.76505,"Low_Value"
"MRI_faces_106",1,2,1,1,15,84.02717,"2039.jpg","1204.jpg",53,46,0,"y",2,1,1270.57,0.18,0.34,85.79851,"Low_Value"
"MRI_faces_106",1,2,1,1,16,88.02783,"2125.jpg","1035.jpg",10,16,0,"b",1,0,1135.9,0.78,0.72,89.66523,"High_Value"
"MRI_faces_106",1,2,1,1,17,91.02833,"1035.jpg","2240.jpg",16,7,1,"y",1,0,1027.43,0.72,0.8,92.54859,"High_Value"
"MRI_faces_106",1,2,1,1,18,96.01526,"2128.jpg","2153.jpg",47,49,0,"y",2,1,1084.49,0.32,0.28,97.61295,"Low_Value"
"MRI_faces_106",1,2,1,1,19,99.01519,"1191.jpg","2125.jpg",11,10,1,"y",1,0,1253.56,0.77,0.78,100.7821,"High_Value"
"MRI_faces_106",1,2,1,1,20,107.0153,"1035.jpg","2209.jpg",16,15,1,"y",1,0,1176.42,0.72,0.73,108.6988,"High_Value"
"MRI_faces_106",1,2,1,1,21,113.0155,"2218.jpg","2039.jpg",43,53,1,"x",2,NA,999000,0.36,0.18,115.016,"Low_Value"
"MRI_faces_106",1,2,1,1,22,118.0187,"1007.jpg","2218.jpg",44,43,0,"y",2,1,862.04,0.36,0.36,119.3834,"Low_Value"
"MRI_faces_106",1,2,1,1,23,123.0173,"2153.jpg","2110.jpg",49,45,1,"b",2,1,826.45,0.28,0.35,124.3509,"Low_Value"
"MRI_faces_106",1,2,1,1,24,126.0185,"1204.jpg","1007.jpg",46,44,1,"y",2,0,1275.2,0.34,0.36,127.8016,"Low_Value"
"MRI_faces_106",1,2,1,1,25,140.0203,"1080.jpg","1204.jpg",52,46,0,"y",2,1,897.44,0.2,0.34,141.4207,"Low_Value"
"MRI_faces_106",1,2,1,1,26,143.0207,"1191.jpg","1145.jpg",11,13,1,"b",1,1,832.03,0.77,0.76,144.3544,"High_Value"
"MRI_faces_106",1,2,1,1,27,147.0215,"1145.jpg","1017.jpg",13,17,0,"y",1,1,1114.28,0.76,0.7,148.6386,"High_Value"
"MRI_faces_106",1,2,1,1,28,151.0222,"1017.jpg","1192.jpg",17,18,1,"y",1,0,1136.56,0.7,0.69,152.666,"High_Value"
"MRI_faces_106",1,2,1,1,29,154.0227,"2110.jpg","2058.jpg",45,51,0,"y",2,1,1033.1,0.35,0.21,155.5564,"Low_Value"
"MRI_faces_106",1,2,1,1,30,157.0232,"2006.jpg","2155.jpg",6,56,1,"b",4,1,813.52,0.86,0.17,158.3402,"Sanity"
"MRI_faces_106",1,2,1,1,31,163.0243,"2164.jpg","1035.jpg",12,16,0,"y",1,1,861.46,0.76,0.72,164.383,"High_Value"
"MRI_faces_106",1,2,1,1,32,169.0253,"1183.jpg","2218.jpg",50,43,0,"b",2,0,1036.47,0.26,0.36,170.559,"Low_Value"
"MRI_faces_106",1,2,1,1,33,172.0259,"1080.jpg","1060.jpg",52,54,0,"b",2,0,1105.83,0.2,0.18,173.6331,"Low_Value"
"MRI_faces_106",1,2,1,1,34,175.0263,"2181.jpg","2164.jpg",14,12,1,"b",1,1,1064.41,0.74,0.76,176.5934,"High_Value"
"MRI_faces_106",1,2,1,1,35,179.0271,"1192.jpg","1226.jpg",18,9,0,"b",1,0,1123.66,0.69,0.78,180.6499,"High_Value"
"MRI_faces_106",1,2,1,1,36,182.0276,"2181.jpg","2209.jpg",14,15,1,"b",1,1,706.15,0.74,0.73,183.2332,"High_Value"
"MRI_faces_106",1,2,1,1,37,185.0281,"1060.jpg","1007.jpg",54,44,1,"b",2,1,935.68,0.18,0.36,186.462,"Low_Value"
"MRI_faces_106",1,2,1,1,38,188.0286,"2164.jpg","1191.jpg",12,11,0,"y",1,1,972.13,0.76,0.77,189.5001,"High_Value"
"MRI_faces_106",1,2,1,2,1,2.028116,"2039.jpg","1060.jpg",53,54,0,"y",2,1,993.78,0.18,0.18,3.520683,"Low_Value"
"MRI_faces_106",1,2,1,2,2,6.028816,"1204.jpg","1183.jpg",46,50,1,"b",2,1,810.1,0.34,0.26,7.336338,"Low_Value"
"MRI_faces_106",1,2,1,2,3,13.01956,"2181.jpg","2125.jpg",14,10,1,"b",1,1,1101.37,0.74,0.78,14.63044,"High_Value"
"MRI_faces_106",1,2,1,2,4,16.01969,"2181.jpg","1145.jpg",14,13,1,"b",1,1,904.21,0.74,0.76,17.43098,"High_Value"
"MRI_faces_106",1,2,1,2,5,21.01971,"2181.jpg","1192.jpg",14,18,1,"y",1,0,1070.21,0.74,0.69,22.59858,"High_Value"
"MRI_faces_106",1,2,1,2,6,31.01991,"2164.jpg","1226.jpg",12,9,0,"y",1,1,940.01,0.76,0.78,32.46713,"High_Value"
"MRI_faces_106",1,2,1,2,7,34.01989,"1192.jpg","1191.jpg",18,11,0,"b",1,0,990.03,0.69,0.77,35.51759,"High_Value"
"MRI_faces_106",1,2,1,2,8,37.02002,"1017.jpg","2164.jpg",17,12,1,"b",1,1,913.89,0.7,0.76,38.43673,"High_Value"
"MRI_faces_106",1,2,1,2,9,46.02006,"1080.jpg","2218.jpg",52,43,0,"y",2,1,1217.9,0.2,0.36,47.73697,"Low_Value"
"MRI_faces_106",1,2,1,2,10,49.0202,"1080.jpg","2024.jpg",52,48,0,"b",2,0,1104.7,0.2,0.3,50.62023,"Low_Value"
"MRI_faces_106",1,2,1,2,11,59.02146,"2024.jpg","2110.jpg",48,45,1,"b",2,1,1186.47,0.3,0.35,60.70525,"Low_Value"
"MRI_faces_106",1,2,1,2,12,64.02429,"1145.jpg","2041.jpg",13,8,0,"y",1,1,919.62,0.76,0.79,65.43945,"High_Value"
"MRI_faces_106",1,2,1,2,13,69.02326,"2240.jpg","2041.jpg",7,8,0,"b",1,0,1116.67,0.8,0.79,70.6404,"High_Value"
"MRI_faces_106",1,2,1,2,14,77.02461,"2153.jpg","1183.jpg",49,50,1,"b",2,1,953.33,0.28,0.26,78.47521,"Low_Value"
"MRI_faces_106",1,2,1,2,15,84.02585,"2181.jpg","2240.jpg",14,7,1,"y",1,0,1018.06,0.74,0.8,85.54292,"High_Value"
"MRI_faces_106",1,2,1,2,16,88.0265,"2218.jpg","2110.jpg",43,45,1,"y",2,0,1249.45,0.36,0.35,89.77711,"Low_Value"
"MRI_faces_106",1,2,1,2,17,91.02702,"1192.jpg","2041.jpg",18,8,0,"b",1,0,1179.92,0.69,0.79,92.70426,"High_Value"
"MRI_faces_106",1,2,1,2,18,96.02804,"2110.jpg","1060.jpg",45,54,0,"b",2,0,1173.89,0.35,0.18,97.69497,"Low_Value"
"MRI_faces_106",1,2,1,2,19,99.02846,"2209.jpg","1017.jpg",15,17,0,"y",1,1,1124.46,0.73,0.7,100.6456,"High_Value"
"MRI_faces_106",1,2,1,2,20,107.0209,"2128.jpg","1204.jpg",47,46,0,"y",2,1,1023.03,0.32,0.34,108.5469,"Low_Value"
"MRI_faces_106",1,2,1,2,21,113.0211,"2041.jpg","2209.jpg",8,15,1,"b",1,1,1013.86,0.79,0.73,114.5378,"High_Value"
"MRI_faces_106",1,2,1,2,22,118.0212,"2043.jpg","1073.jpg",55,5,0,"y",4,1,1035.75,0.18,0.86,119.5546,"Sanity"
"MRI_faces_106",1,2,1,2,23,123.0212,"2218.jpg","2128.jpg",43,47,1,"y",2,0,1014.71,0.36,0.32,124.5379,"Low_Value"
"MRI_faces_106",1,2,1,2,24,126.0212,"1226.jpg","2209.jpg",9,15,1,"b",1,1,1141.7,0.78,0.73,127.667,"High_Value"
"MRI_faces_106",1,2,1,2,25,140.0213,"1080.jpg","2153.jpg",52,49,0,"y",2,1,854.59,0.2,0.28,141.3715,"Low_Value"
"MRI_faces_106",1,2,1,2,26,143.0214,"1007.jpg","2024.jpg",44,48,0,"b",2,0,1140.52,0.36,0.3,144.6549,"Low_Value"
"MRI_faces_106",1,2,1,2,27,147.0216,"1017.jpg","2240.jpg",17,7,1,"b",1,1,1171.36,0.7,0.8,148.6883,"High_Value"
"MRI_faces_106",1,2,1,2,28,151.0216,"2043.jpg","2006.jpg",55,6,0,"y",4,1,990.32,0.18,0.86,152.5051,"Sanity"
"MRI_faces_106",1,2,1,2,29,154.0216,"2058.jpg","1183.jpg",51,50,1,"y",2,0,1080.32,0.21,0.26,155.6051,"Low_Value"
"MRI_faces_106",1,2,1,2,30,157.0219,"1191.jpg","2240.jpg",11,7,1,"y",1,0,1052.07,0.77,0.8,158.5724,"High_Value"
"MRI_faces_106",1,2,1,2,31,163.023,"2024.jpg","2039.jpg",48,53,1,"y",2,0,1166.98,0.3,0.18,164.6901,"Low_Value"
"MRI_faces_106",1,2,1,2,32,169.0241,"2039.jpg","2153.jpg",53,49,0,"y",2,1,936.85,0.18,0.28,170.4577,"Low_Value"
"MRI_faces_106",1,2,1,2,33,172.0257,"2164.jpg","2041.jpg",12,8,0,"y",1,1,1129.22,0.76,0.79,173.6583,"High_Value"
"MRI_faces_106",1,2,1,2,34,175.0251,"1226.jpg","2240.jpg",9,7,1,"y",1,0,1276.87,0.78,0.8,176.8053,"High_Value"
"MRI_faces_106",1,2,1,2,35,179.0257,"2128.jpg","1060.jpg",47,54,0,"b",2,0,1337.19,0.32,0.18,180.8595,"Low_Value"
"MRI_faces_106",1,2,1,2,36,182.0262,"2153.jpg","1007.jpg",49,44,1,"y",2,0,1239.7,0.28,0.36,183.76,"Low_Value"
"MRI_faces_106",1,2,1,2,37,185.0268,"1204.jpg","2110.jpg",46,45,1,"b",2,1,1203.09,0.34,0.35,186.7273,"Low_Value"
"MRI_faces_106",1,2,1,2,38,188.0273,"2125.jpg","1017.jpg",10,17,0,"b",1,0,1191.6,0.78,0.7,189.7111,"High_Value"
"MRI_faces_106",1,2,2,1,1,2.029528,"1017.jpg","2209.jpg",17,15,1,"b",1,1,1161.22,0.7,0.73,3.680951,"High_Value"
"MRI_faces_106",1,2,2,1,2,9.028452,"1145.jpg","2041.jpg",13,8,0,"y",1,1,958.28,0.76,0.79,10.48106,"High_Value"
"MRI_faces_106",1,2,2,1,3,22.02862,"2024.jpg","1080.jpg",48,52,1,"y",2,0,924.13,0.3,0.2,23.45008,"Low_Value"
"MRI_faces_106",1,2,2,1,4,26.0287,"2181.jpg","1192.jpg",14,18,1,"b",1,1,963.04,0.74,0.69,27.48403,"High_Value"
"MRI_faces_106",1,2,2,1,5,31.02868,"1060.jpg","1007.jpg",54,44,1,"y",2,0,1001.07,0.18,0.36,32.52882,"Low_Value"
"MRI_faces_106",1,2,2,1,6,34.02881,"2128.jpg","2058.jpg",47,51,0,"b",2,0,1333.94,0.32,0.21,35.86238,"Low_Value"
"MRI_faces_106",1,2,2,1,7,39.02888,"2006.jpg","2155.jpg",6,56,1,"b",4,1,788.86,0.86,0.17,40.31232,"Sanity"
"MRI_faces_106",1,2,2,1,8,43.02887,"2058.jpg","2039.jpg",51,53,1,"y",2,0,1080.87,0.21,0.18,44.60373,"Low_Value"
"MRI_faces_106",1,2,2,1,9,52.02899,"2128.jpg","2218.jpg",47,43,0,"b",2,0,1376.77,0.32,0.36,53.90529,"Low_Value"
"MRI_faces_106",1,2,2,1,10,57.02905,"1060.jpg","2128.jpg",54,47,1,"y",2,0,1170.7,0.18,0.32,58.69593,"Low_Value"
"MRI_faces_106",1,2,2,1,11,61.02926,"2153.jpg","1007.jpg",49,44,1,"y",2,0,1043.49,0.28,0.36,62.56267,"Low_Value"
"MRI_faces_106",1,2,2,1,12,68.02922,"1035.jpg","2240.jpg",16,7,1,"y",1,0,1073.55,0.72,0.8,69.59609,"High_Value"
"MRI_faces_106",1,2,2,1,13,72.0293,"2058.jpg","1183.jpg",51,50,1,"y",2,0,1011.49,0.21,0.26,73.52943,"Low_Value"
"MRI_faces_106",1,2,2,1,14,78.02939,"1145.jpg","2181.jpg",13,14,0,"y",1,1,993.35,0.76,0.74,79.51293,"High_Value"
"MRI_faces_106",1,2,2,1,15,83.0295,"2128.jpg","2024.jpg",47,48,0,"b",2,0,1258.26,0.32,0.3,84.77959,"Low_Value"
"MRI_faces_106",1,2,2,1,16,87.02957,"1183.jpg","2218.jpg",50,43,0,"b",2,0,901.16,0.26,0.36,88.42963,"Low_Value"
"MRI_faces_106",1,2,2,1,17,90.02939,"1191.jpg","1145.jpg",11,13,1,"b",1,1,1116.36,0.77,0.76,91.64639,"High_Value"
"MRI_faces_106",1,2,2,1,18,93.02967,"1080.jpg","1060.jpg",52,54,0,"y",2,1,1132.06,0.2,0.18,94.64634,"Low_Value"
"MRI_faces_106",1,2,2,1,19,97.02968,"1192.jpg","1191.jpg",18,11,0,"b",1,0,1066.07,0.69,0.77,98.57967,"High_Value"
"MRI_faces_106",1,2,2,1,20,110.03,"2164.jpg","1226.jpg",12,9,0,"y",1,1,1172.79,0.76,0.78,111.6989,"High_Value"
"MRI_faces_106",1,2,2,1,21,114.0159,"2164.jpg","1191.jpg",12,11,0,"y",1,1,897.85,0.76,0.77,115.4161,"High_Value"
"MRI_faces_106",1,2,2,1,22,117.0163,"1191.jpg","2209.jpg",11,15,1,"y",1,0,846.49,0.77,0.73,118.3667,"High_Value"
"MRI_faces_106",1,2,2,1,23,122.0171,"1226.jpg","1145.jpg",9,13,1,"b",1,1,974.65,0.78,0.76,123.501,"High_Value"
"MRI_faces_106",1,2,2,1,24,125.0176,"2039.jpg","1204.jpg",53,46,0,"y",2,1,1082.1,0.18,0.34,126.6014,"Low_Value"
"MRI_faces_106",1,2,2,1,25,129.0184,"2039.jpg","2024.jpg",53,48,0,"b",2,0,1054.35,0.18,0.3,130.5802,"Low_Value"
"MRI_faces_106",1,2,2,1,26,135.0194,"1145.jpg","1017.jpg",13,17,0,"y",1,1,855.37,0.76,0.7,136.3803,"High_Value"
"MRI_faces_106",1,2,2,1,27,138.02,"1183.jpg","2153.jpg",50,49,0,"y",2,1,1072.79,0.26,0.28,139.5971,"Low_Value"
"MRI_faces_106",1,2,2,1,28,142.0206,"2039.jpg","1060.jpg",53,54,0,"y",2,1,961.16,0.18,0.18,143.4879,"Low_Value"
"MRI_faces_106",1,2,2,1,29,147.0215,"1017.jpg","1192.jpg",17,18,1,"b",1,1,1077.19,0.7,0.69,148.6053,"High_Value"
"MRI_faces_106",1,2,2,1,30,151.0222,"2024.jpg","2110.jpg",48,45,1,"y",2,0,757.54,0.3,0.35,152.2807,"Low_Value"
"MRI_faces_106",1,2,2,1,31,163.0243,"1226.jpg","2125.jpg",9,10,1,"b",1,1,1072.41,0.78,0.78,164.5974,"High_Value"
"MRI_faces_106",1,2,2,1,32,169.0253,"2125.jpg","2181.jpg",10,14,0,"y",1,1,1080.41,0.78,0.74,170.6091,"High_Value"
"MRI_faces_106",1,2,2,1,33,172.0258,"1204.jpg","1183.jpg",46,50,1,"y",2,0,1081.91,0.34,0.26,173.6096,"Low_Value"
"MRI_faces_106",1,2,2,1,34,176.0308,"1191.jpg","2125.jpg",11,10,1,"y",1,0,848.97,0.77,0.78,177.377,"High_Value"
"MRI_faces_106",1,2,2,1,35,179.0271,"2209.jpg","1226.jpg",15,9,0,"y",1,1,786.61,0.73,0.78,180.3142,"High_Value"
"MRI_faces_106",1,2,2,1,36,182.0308,"2043.jpg","2006.jpg",55,6,0,"y",4,1,933.93,0.18,0.86,183.4613,"Sanity"
"MRI_faces_106",1,2,2,1,37,185.0281,"1204.jpg","1080.jpg",46,52,1,"b",2,1,927.62,0.34,0.2,186.4477,"Low_Value"
"MRI_faces_106",1,2,2,1,38,188.031,"2164.jpg","2181.jpg",12,14,0,"y",1,1,708.74,0.76,0.74,189.231,"High_Value"
"MRI_faces_106",1,2,2,2,1,2.017198,"1192.jpg","1035.jpg",18,16,0,"b",1,0,783.57,0.69,0.72,3.301752,"High_Value"
"MRI_faces_106",1,2,2,2,2,6.017335,"2181.jpg","2209.jpg",14,15,1,"b",1,1,876.45,0.74,0.73,7.397275,"High_Value"
"MRI_faces_106",1,2,2,2,3,13.01737,"1191.jpg","2240.jpg",11,7,1,"y",1,0,949.41,0.77,0.8,14.46751,"High_Value"
"MRI_faces_106",1,2,2,2,4,16.01741,"1080.jpg","2153.jpg",52,49,0,"y",2,1,808.36,0.2,0.28,17.31762,"Low_Value"
"MRI_faces_106",1,2,2,2,5,21.01751,"1035.jpg","1145.jpg",16,13,1,"b",1,1,1006.29,0.72,0.76,22.51763,"High_Value"
"MRI_faces_106",1,2,2,2,6,31.01783,"1226.jpg","2240.jpg",9,7,1,"y",1,0,830.94,0.78,0.8,32.3515,"High_Value"
"MRI_faces_106",1,2,2,2,7,34.01842,"2039.jpg","2153.jpg",53,49,0,"y",2,1,862.36,0.18,0.28,35.3845,"Low_Value"
"MRI_faces_106",1,2,2,2,8,37.01889,"2128.jpg","2153.jpg",47,49,0,"y",2,1,979.89,0.32,0.28,38.5027,"Low_Value"
"MRI_faces_106",1,2,2,2,9,46.02195,"1183.jpg","2024.jpg",50,48,0,"b",2,0,978.81,0.26,0.3,47.48754,"Low_Value"
"MRI_faces_106",1,2,2,2,10,49.02107,"2058.jpg","1007.jpg",51,44,1,"y",2,0,826.72,0.21,0.36,50.33809,"Low_Value"
"MRI_faces_106",1,2,2,2,11,59.01808,"2218.jpg","1007.jpg",43,44,1,"y",2,0,766.69,0.36,0.36,60.28976,"Low_Value"
"MRI_faces_106",1,2,2,2,12,64.01809,"2024.jpg","1007.jpg",48,44,1,"y",2,0,974.66,0.3,0.36,65.49076,"Low_Value"
"MRI_faces_106",1,2,2,2,13,69.01823,"1007.jpg","1204.jpg",44,46,0,"y",2,1,842.55,0.36,0.34,70.35816,"Low_Value"
"MRI_faces_106",1,2,2,2,14,77.01827,"1204.jpg","2128.jpg",46,47,1,"b",2,1,940.5,0.34,0.32,78.4596,"Low_Value"
"MRI_faces_106",1,2,2,2,15,84.01837,"1073.jpg","2043.jpg",5,55,1,"b",4,1,1080.41,0.86,0.18,85.60192,"Sanity"
"MRI_faces_106",1,2,2,2,16,88.01845,"2209.jpg","1035.jpg",15,16,0,"y",1,1,918.33,0.73,0.72,89.43526,"High_Value"
"MRI_faces_106",1,2,2,2,17,91.01844,"2041.jpg","2125.jpg",8,10,1,"b",1,1,1001.36,0.79,0.78,92.51862,"High_Value"
"MRI_faces_106",1,2,2,2,18,96.01858,"2164.jpg","2041.jpg",12,8,0,"y",1,1,746.21,0.76,0.79,97.26289,"High_Value"
"MRI_faces_106",1,2,2,2,19,99.0186,"1080.jpg","2218.jpg",52,43,0,"b",2,0,1345.18,0.2,0.36,100.8636,"Low_Value"
"MRI_faces_106",1,2,2,2,20,107.0187,"2181.jpg","2240.jpg",14,7,1,"b",1,1,916.03,0.74,0.8,108.4356,"High_Value"
"MRI_faces_106",1,2,2,2,21,113.0189,"2041.jpg","1192.jpg",8,18,1,"y",1,0,939.91,0.79,0.69,114.4522,"High_Value"
"MRI_faces_106",1,2,2,2,22,118.0189,"1060.jpg","1183.jpg",54,50,1,"y",2,0,1078.82,0.18,0.26,119.6002,"Low_Value"
"MRI_faces_106",1,2,2,2,23,123.0189,"1017.jpg","2240.jpg",17,7,1,"b",1,1,1234.83,0.7,0.8,124.7524,"High_Value"
"MRI_faces_106",1,2,2,2,24,126.0189,"2041.jpg","2209.jpg",8,15,1,"b",1,1,1109.82,0.79,0.73,127.6193,"High_Value"
"MRI_faces_106",1,2,2,2,25,140.0203,"2125.jpg","1017.jpg",10,17,0,"y",1,1,1022.53,0.78,0.7,141.5373,"High_Value"
"MRI_faces_106",1,2,2,2,26,143.0208,"2155.jpg","1073.jpg",56,5,0,"y",4,1,873,0.17,0.86,144.3878,"Sanity"
"MRI_faces_106",1,2,2,2,27,147.0214,"1204.jpg","2110.jpg",46,45,1,"b",2,1,1164.36,0.34,0.35,148.6861,"Low_Value"
"MRI_faces_106",1,2,2,2,28,151.0221,"2240.jpg","2041.jpg",7,8,0,"b",1,0,1214.64,0.8,0.79,152.7361,"High_Value"
"MRI_faces_106",1,2,2,2,29,154.0226,"2039.jpg","2218.jpg",53,43,0,"y",2,1,1040.14,0.18,0.36,155.5564,"Low_Value"
"MRI_faces_106",1,2,2,2,30,157.0194,"1192.jpg","1226.jpg",18,9,0,"b",1,0,1154.34,0.69,0.78,158.6737,"High_Value"
"MRI_faces_106",1,2,2,2,31,163.0195,"2164.jpg","1017.jpg",12,17,0,"y",1,1,698.26,0.76,0.7,164.2196,"High_Value"
"MRI_faces_106",1,2,2,2,32,169.0196,"2110.jpg","2218.jpg",45,43,0,"b",2,0,1055.2,0.35,0.36,170.5756,"Low_Value"
"MRI_faces_106",1,2,2,2,33,172.0202,"2110.jpg","1060.jpg",45,54,0,"b",2,0,1027.62,0.35,0.18,173.543,"Low_Value"
"MRI_faces_106",1,2,2,2,34,175.0196,"2153.jpg","2110.jpg",49,45,1,"b",2,1,854.15,0.28,0.35,176.3767,"Low_Value"
"MRI_faces_106",1,2,2,2,35,179.0197,"2125.jpg","1035.jpg",10,16,0,"b",1,0,1055.07,0.78,0.72,180.5774,"High_Value"
"MRI_faces_106",1,2,2,2,36,182.0202,"1035.jpg","2164.jpg",16,12,1,"b",1,1,987.65,0.72,0.76,183.5032,"High_Value"
"MRI_faces_106",1,2,2,2,37,185.0198,"2058.jpg","1080.jpg",51,52,1,"y",2,0,994.98,0.21,0.2,186.5117,"Low_Value"
"MRI_faces_106",1,2,2,2,38,188.0199,"2110.jpg","2058.jpg",45,51,0,"b",2,0,1092.89,0.35,0.21,189.6124,"Low_Value"
"MRI_faces_107",1,1,1,1,1,2.026141,"2248.jpg","2181.jpg",13,9,1,"y",1,0,991.79,0.71,0.81,3.515845,"High_Value"
"MRI_faces_107",1,1,1,1,2,6.026214,"2039.jpg","1192.jpg",6,55,1,"b",4,1,609.72,0.84,0.18,7.133155,"Sanity"
"MRI_faces_107",1,1,1,1,3,9.026276,"2128.jpg","1262.jpg",18,16,1,"b",1,1,788.65,0.64,0.66,10.31715,"High_Value"
"MRI_faces_107",1,1,1,1,4,14.02634,"2194.jpg","1204.jpg",52,43,1,"b",2,1,927.63,0.22,0.32,15.45127,"Low_Value"
"MRI_faces_107",1,1,1,1,5,17.02634,"1183.jpg","1216.jpg",45,46,1,"b",2,1,1238.59,0.31,0.25,18.76854,"Low_Value"
"MRI_faces_107",1,1,1,1,6,20.02642,"2248.jpg","2212.jpg",13,11,1,"y",1,0,1060.51,0.71,0.78,21.58579,"High_Value"
"MRI_faces_107",1,1,1,1,7,34.0267,"1183.jpg","1145.jpg",45,49,1,"y",2,0,1053.23,0.31,0.23,35.57694,"Low_Value"
"MRI_faces_107",1,1,1,1,8,38.02666,"1216.jpg","1052.jpg",46,53,0,"b",2,0,919.28,0.25,0.22,39.44366,"Low_Value"
"MRI_faces_107",1,1,1,1,9,42.02674,"2125.jpg","2015.jpg",10,8,1,"y",1,0,893.19,0.79,0.82,43.42298,"High_Value"
"MRI_faces_107",1,1,1,1,10,45.02677,"1114.jpg","2248.jpg",17,13,0,"b",1,0,1108.15,0.64,0.71,46.62698,"High_Value"
"MRI_faces_107",1,1,1,1,11,48.02678,"1052.jpg","1017.jpg",53,48,1,"y",2,0,1176.15,0.22,0.23,49.70729,"Low_Value"
"MRI_faces_107",1,1,1,1,12,53.02696,"2024.jpg","2212.jpg",12,11,1,"b",1,1,1115.97,0.77,0.78,54.64382,"High_Value"
"MRI_faces_107",1,1,1,1,13,56.02693,"2041.jpg","2248.jpg",14,13,0,"b",1,0,974.03,0.7,0.71,57.49371,"High_Value"
"MRI_faces_107",1,1,1,1,14,66.02719,"1191.jpg","1145.jpg",44,49,1,"b",2,1,976.74,0.31,0.23,67.49394,"Low_Value"
"MRI_faces_107",1,1,1,1,15,72.02766,"1191.jpg","1204.jpg",44,43,1,"b",2,1,746.26,0.31,0.32,73.2774,"Low_Value"
"MRI_faces_107",1,1,1,1,16,75.02827,"1127.jpg","2010.jpg",56,5,0,"y",4,1,851.66,0.18,0.85,76.37859,"Sanity"
"MRI_faces_107",1,1,1,1,17,79.02891,"2041.jpg","2128.jpg",14,18,0,"b",1,0,679.01,0.7,0.64,80.19596,"High_Value"
"MRI_faces_107",1,1,1,1,18,84.02974,"2212.jpg","2125.jpg",11,10,0,"y",1,1,592.19,0.78,0.79,85.11344,"High_Value"
"MRI_faces_107",1,1,1,1,19,91.03108,"1226.jpg","1150.jpg",50,51,1,"y",2,0,1134.85,0.22,0.22,92.66492,"Low_Value"
"MRI_faces_107",1,1,1,1,20,96.02746,"1114.jpg","2125.jpg",17,10,0,"y",1,1,571.48,0.64,0.79,97.09902,"High_Value"
"MRI_faces_107",1,1,1,1,21,99.02757,"2212.jpg","2153.jpg",11,7,0,"y",1,1,739.35,0.78,0.83,100.2662,"High_Value"
"MRI_faces_107",1,1,1,1,22,105.0276,"2194.jpg","1246.jpg",52,54,1,"y",2,0,1101.32,0.22,0.21,106.6279,"Low_Value"
"MRI_faces_107",1,1,1,1,23,109.0277,"2181.jpg","2045.jpg",9,15,0,"b",1,0,1167.19,0.81,0.66,110.6945,"High_Value"
"MRI_faces_107",1,1,1,1,24,121.0278,"1204.jpg","1226.jpg",43,50,0,"b",2,0,1011.14,0.32,0.22,122.5366,"Low_Value"
"MRI_faces_107",1,1,1,1,25,124.0279,"2164.jpg","1204.jpg",47,43,1,"b",2,1,774,0.24,0.32,125.3038,"Low_Value"
"MRI_faces_107",1,1,1,1,26,127.0279,"2041.jpg","2024.jpg",14,12,0,"b",1,0,730.04,0.7,0.77,128.2544,"High_Value"
"MRI_faces_107",1,1,1,1,27,131.0279,"1183.jpg","1204.jpg",45,43,1,"y",2,0,1073,0.31,0.32,132.5949,"Low_Value"
"MRI_faces_107",1,1,1,1,28,137.028,"1262.jpg","2248.jpg",16,13,0,"b",1,0,1271.92,0.66,0.71,138.7949,"High_Value"
"MRI_faces_107",1,1,1,1,29,140.0281,"1017.jpg","2194.jpg",48,52,0,"b",2,0,852.81,0.23,0.22,141.3784,"Low_Value"
"MRI_faces_107",1,1,1,1,30,149.0282,"2024.jpg","1114.jpg",12,17,1,"y",1,0,915.77,0.77,0.64,150.4451,"High_Value"
"MRI_faces_107",1,1,1,1,31,153.0283,"2128.jpg","2181.jpg",18,9,1,"y",1,0,1096.62,0.64,0.81,154.6257,"High_Value"
"MRI_faces_107",1,1,1,1,32,157.0283,"1150.jpg","2164.jpg",51,47,0,"y",2,1,1085.63,0.22,0.24,158.6119,"Low_Value"
"MRI_faces_107",1,1,1,1,33,160.0283,"1226.jpg","1216.jpg",50,46,1,"y",2,0,809.61,0.22,0.25,161.3285,"Low_Value"
"MRI_faces_107",1,1,1,1,34,163.0284,"1150.jpg","1191.jpg",51,44,0,"y",2,1,911.54,0.22,0.31,164.4286,"Low_Value"
"MRI_faces_107",1,1,1,1,35,173.0286,"1204.jpg","1052.jpg",43,53,0,"x",2,NA,999000,0.32,0.22,175.0293,"Low_Value"
"MRI_faces_107",1,1,1,1,36,177.0293,"1145.jpg","2164.jpg",49,47,0,"y",2,1,638.6,0.23,0.24,178.163,"Low_Value"
"MRI_faces_107",1,1,1,1,37,185.0307,"2041.jpg","2045.jpg",14,15,0,"b",1,0,945.16,0.7,0.66,186.4645,"High_Value"
"MRI_faces_107",1,1,1,1,38,188.0287,"2041.jpg","2153.jpg",14,7,0,"y",1,1,857.2,0.7,0.83,189.3816,"High_Value"
"MRI_faces_107",1,1,1,2,1,2.027013,"2248.jpg","2015.jpg",13,8,1,"y",1,0,1214.91,0.71,0.82,3.732065,"High_Value"
"MRI_faces_107",1,1,1,2,2,6.027806,"1145.jpg","2194.jpg",49,52,0,"y",2,1,613.13,0.23,0.22,7.131994,"Low_Value"
"MRI_faces_107",1,1,1,2,3,9.028246,"1114.jpg","2045.jpg",17,15,0,"b",1,0,993.68,0.64,0.66,10.51554,"High_Value"
"MRI_faces_107",1,1,1,2,4,14.01533,"1017.jpg","2164.jpg",48,47,0,"y",2,1,882.6,0.23,0.24,15.39884,"Low_Value"
"MRI_faces_107",1,1,1,2,5,17.01542,"1192.jpg","2010.jpg",55,5,0,"y",4,1,783.51,0.18,0.85,18.29897,"Sanity"
"MRI_faces_107",1,1,1,2,6,20.01549,"1183.jpg","1017.jpg",45,48,1,"y",2,0,993.45,0.31,0.23,21.51571,"Low_Value"
"MRI_faces_107",1,1,1,2,7,34.01598,"2015.jpg","2153.jpg",8,7,0,"y",1,1,808.97,0.82,0.83,35.33295,"High_Value"
"MRI_faces_107",1,1,1,2,8,38.01668,"1052.jpg","1246.jpg",53,54,1,"b",2,1,745.25,0.22,0.21,39.26694,"Low_Value"
"MRI_faces_107",1,1,1,2,9,42.01981,"2194.jpg","1150.jpg",52,51,1,"b",2,1,731.22,0.22,0.22,43.251,"Low_Value"
"MRI_faces_107",1,1,1,2,10,45.01787,"1262.jpg","2153.jpg",16,7,0,"y",1,1,588.07,0.66,0.83,46.11612,"High_Value"
"MRI_faces_107",1,1,1,2,11,48.01981,"1262.jpg","2024.jpg",16,12,0,"b",1,0,1008.16,0.66,0.77,49.5355,"High_Value"
"MRI_faces_107",1,1,1,2,12,53.01933,"2039.jpg","1127.jpg",6,56,1,"b",4,1,594.63,0.84,0.18,54.11966,"Sanity"
"MRI_faces_107",1,1,1,2,13,56.01963,"1114.jpg","2128.jpg",17,18,0,"y",1,1,806.31,0.64,0.64,57.33287,"High_Value"
"MRI_faces_107",1,1,1,2,14,66.02165,"2128.jpg","2212.jpg",18,11,1,"y",1,0,833.28,0.64,0.78,67.35542,"High_Value"
"MRI_faces_107",1,1,1,2,15,72.02267,"1216.jpg","2164.jpg",46,47,0,"y",2,1,1123.26,0.25,0.24,73.6498,"Low_Value"
"MRI_faces_107",1,1,1,2,16,75.02316,"2153.jpg","2181.jpg",7,9,1,"b",1,1,597.77,0.83,0.81,76.12339,"High_Value"
"MRI_faces_107",1,1,1,2,17,79.02376,"1226.jpg","1017.jpg",50,48,1,"b",2,1,896.18,0.22,0.23,80.42415,"Low_Value"
"MRI_faces_107",1,1,1,2,18,84.02475,"1262.jpg","2125.jpg",16,10,0,"y",1,1,606.18,0.66,0.79,85.13326,"High_Value"
"MRI_faces_107",1,1,1,2,19,91.02589,"2024.jpg","2181.jpg",12,9,1,"y",1,0,738.04,0.77,0.81,92.26664,"High_Value"
"MRI_faces_107",1,1,1,2,20,96.02681,"2045.jpg","2212.jpg",15,11,1,"y",1,0,816.12,0.66,0.78,97.34398,"High_Value"
"MRI_faces_107",1,1,1,2,21,99.02726,"1114.jpg","2153.jpg",17,7,0,"b",1,0,860.67,0.64,0.83,100.3835,"High_Value"
"MRI_faces_107",1,1,1,2,22,105.0284,"1246.jpg","1191.jpg",54,44,0,"b",2,0,964.55,0.21,0.31,106.4834,"Low_Value"
"MRI_faces_107",1,1,1,2,23,109.0167,"2181.jpg","2125.jpg",9,10,0,"y",1,1,643.21,0.81,0.79,110.1669,"High_Value"
"MRI_faces_107",1,1,1,2,24,121.0168,"1150.jpg","1183.jpg",51,45,0,"y",2,1,919.11,0.22,0.31,122.4338,"Low_Value"
"MRI_faces_107",1,1,1,2,25,124.0168,"1226.jpg","1145.jpg",50,49,1,"y",2,0,824.1,0.22,0.23,125.3504,"Low_Value"
"MRI_faces_107",1,1,1,2,26,127.0169,"1183.jpg","1246.jpg",45,54,1,"b",2,1,1212.04,0.31,0.21,128.7337,"Low_Value"
"MRI_faces_107",1,1,1,2,27,131.017,"2024.jpg","2015.jpg",12,8,1,"y",1,0,473.93,0.77,0.82,132.0005,"High_Value"
"MRI_faces_107",1,1,1,2,28,137.0172,"1145.jpg","1052.jpg",49,53,0,"y",2,1,642.7,0.23,0.22,138.1676,"Low_Value"
"MRI_faces_107",1,1,1,2,29,140.0178,"2015.jpg","2128.jpg",8,18,0,"b",1,0,799.18,0.82,0.64,141.3183,"High_Value"
"MRI_faces_107",1,1,1,2,30,149.0193,"2125.jpg","2041.jpg",10,14,1,"b",1,1,569.61,0.79,0.7,150.0864,"High_Value"
"MRI_faces_107",1,1,1,2,31,153.02,"2015.jpg","2045.jpg",8,15,0,"y",1,1,740.93,0.82,0.66,154.2675,"High_Value"
"MRI_faces_107",1,1,1,2,32,157.0207,"1150.jpg","1052.jpg",51,53,0,"y",2,1,734.24,0.22,0.22,158.2544,"Low_Value"
"MRI_faces_107",1,1,1,2,33,160.0211,"1191.jpg","1017.jpg",44,48,1,"b",2,1,875.81,0.31,0.23,161.4008,"Low_Value"
"MRI_faces_107",1,1,1,2,34,163.0217,"2194.jpg","1216.jpg",52,46,1,"b",2,1,674.2,0.22,0.25,164.201,"Low_Value"
"MRI_faces_107",1,1,1,2,35,173.0235,"2045.jpg","1262.jpg",15,16,1,"b",1,1,867.42,0.66,0.66,174.3905,"High_Value"
"MRI_faces_107",1,1,1,2,36,177.0242,"1191.jpg","1216.jpg",44,46,1,"y",2,0,1015.72,0.31,0.25,178.5412,"Low_Value"
"MRI_faces_107",1,1,1,2,37,185.0256,"1246.jpg","2164.jpg",54,47,0,"b",2,0,903.34,0.21,0.24,186.426,"Low_Value"
"MRI_faces_107",1,1,1,2,38,188.0262,"1226.jpg","1246.jpg",50,54,1,"y",2,0,618.75,0.22,0.21,189.1432,"Low_Value"
"MRI_faces_107",1,1,2,1,1,2.013357,"1204.jpg","2194.jpg",43,52,0,"b",2,0,1169.97,0.32,0.22,3.695103,"Low_Value"
"MRI_faces_107",1,1,2,1,2,9.012645,"1246.jpg","1183.jpg",54,45,0,"y",2,1,929.67,0.21,0.31,10.44644,"Low_Value"
"MRI_faces_107",1,1,2,1,3,22.01492,"2041.jpg","2248.jpg",14,13,0,"y",1,1,943.43,0.7,0.71,23.46545,"High_Value"
"MRI_faces_107",1,1,2,1,4,26.01557,"1017.jpg","1191.jpg",48,44,0,"y",2,1,940.75,0.23,0.31,27.46613,"Low_Value"
"MRI_faces_107",1,1,2,1,5,31.01652,"2024.jpg","2041.jpg",12,14,1,"y",1,0,895.8,0.77,0.7,32.41701,"High_Value"
"MRI_faces_107",1,1,2,1,6,34.01699,"2212.jpg","2153.jpg",11,7,0,"y",1,1,821.32,0.78,0.83,35.34449,"High_Value"
"MRI_faces_107",1,1,2,1,7,39.01792,"2194.jpg","1145.jpg",52,49,1,"y",2,0,860.4,0.22,0.23,40.38505,"Low_Value"
"MRI_faces_107",1,1,2,1,8,43.01856,"2041.jpg","2153.jpg",14,7,0,"y",1,1,746.76,0.7,0.83,44.26906,"High_Value"
"MRI_faces_107",1,1,2,1,9,52.02016,"1052.jpg","1246.jpg",53,54,1,"b",2,1,1115.17,0.22,0.21,53.63735,"Low_Value"
"MRI_faces_107",1,1,2,1,10,57.02104,"2164.jpg","1246.jpg",47,54,1,"y",2,0,742.28,0.24,0.21,58.26162,"Low_Value"
"MRI_faces_107",1,1,2,1,11,61.02169,"2128.jpg","1262.jpg",18,16,1,"y",1,0,968.6,0.64,0.66,62.49484,"High_Value"
"MRI_faces_107",1,1,2,1,12,68.02296,"2153.jpg","2181.jpg",7,9,1,"b",1,1,629.36,0.83,0.81,69.14505,"High_Value"
"MRI_faces_107",1,1,2,1,13,72.02373,"2194.jpg","1216.jpg",52,46,1,"y",2,0,944.59,0.22,0.25,73.46174,"Low_Value"
"MRI_faces_107",1,1,2,1,14,78.02466,"1052.jpg","1204.jpg",53,43,1,"y",2,0,745.67,0.22,0.32,79.26173,"Low_Value"
"MRI_faces_107",1,1,2,1,15,83.02555,"2248.jpg","2212.jpg",13,11,1,"b",1,1,792.77,0.71,0.78,84.31192,"High_Value"
"MRI_faces_107",1,1,2,1,16,87.0263,"2181.jpg","2045.jpg",9,15,0,"b",1,0,638.02,0.81,0.66,88.16193,"High_Value"
"MRI_faces_107",1,1,2,1,17,90.02674,"1191.jpg","1204.jpg",44,43,1,"b",2,1,952.62,0.31,0.32,91.47859,"Low_Value"
"MRI_faces_107",1,1,2,1,18,93.01181,"1052.jpg","1145.jpg",53,49,1,"b",2,1,744.51,0.22,0.23,94.26202,"Low_Value"
"MRI_faces_107",1,1,2,1,19,97.01193,"2153.jpg","2015.jpg",7,8,1,"b",1,1,675.4,0.83,0.82,98.1954,"High_Value"
"MRI_faces_107",1,1,2,1,20,110.016,"1226.jpg","1246.jpg",50,54,1,"y",2,0,825.35,0.22,0.21,111.3474,"Low_Value"
"MRI_faces_107",1,1,2,1,21,114.0152,"1017.jpg","2194.jpg",48,52,0,"y",2,1,842.14,0.23,0.22,115.3648,"Low_Value"
"MRI_faces_107",1,1,2,1,22,117.0148,"1145.jpg","1226.jpg",49,50,0,"b",2,0,564.47,0.23,0.22,118.0818,"Low_Value"
"MRI_faces_107",1,1,2,1,23,122.0157,"2045.jpg","2041.jpg",15,14,1,"y",1,0,634.59,0.66,0.7,123.1493,"High_Value"
"MRI_faces_107",1,1,2,1,24,125.0163,"1145.jpg","2164.jpg",49,47,0,"b",2,0,843.05,0.23,0.24,126.3667,"Low_Value"
"MRI_faces_107",1,1,2,1,25,129.0169,"2125.jpg","1114.jpg",10,17,1,"b",1,1,737.37,0.79,0.64,130.2626,"High_Value"
"MRI_faces_107",1,1,2,1,26,135.018,"2164.jpg","1150.jpg",47,51,1,"y",2,0,911.29,0.24,0.22,136.4351,"Low_Value"
"MRI_faces_107",1,1,2,1,27,138.0184,"2024.jpg","2212.jpg",12,11,1,"b",1,1,615.91,0.77,0.78,139.1354,"High_Value"
"MRI_faces_107",1,1,2,1,28,142.0191,"2212.jpg","2128.jpg",11,18,0,"b",1,0,836.19,0.78,0.64,143.3625,"High_Value"
"MRI_faces_107",1,1,2,1,29,147.0201,"2024.jpg","1114.jpg",12,17,1,"b",1,1,613.26,0.77,0.64,148.1372,"High_Value"
"MRI_faces_107",1,1,2,1,30,151.0207,"1192.jpg","2010.jpg",55,5,0,"y",4,1,603.61,0.18,0.85,152.1294,"Sanity"
"MRI_faces_107",1,1,2,1,31,163.0228,"1114.jpg","2248.jpg",17,13,0,"b",1,0,931.49,0.64,0.71,164.4566,"High_Value"
"MRI_faces_107",1,1,2,1,32,169.0239,"1114.jpg","2153.jpg",17,7,0,"y",1,1,774.44,0.64,0.83,170.2963,"High_Value"
"MRI_faces_107",1,1,2,1,33,172.0244,"1017.jpg","1226.jpg",48,50,0,"y",2,1,843.89,0.23,0.22,173.363,"Low_Value"
"MRI_faces_107",1,1,2,1,34,176.0251,"1145.jpg","1191.jpg",49,44,0,"x",2,NA,999000,0.23,0.31,178.0256,"Low_Value"
"MRI_faces_107",1,1,2,1,35,179.0256,"2181.jpg","2248.jpg",9,13,0,"b",1,0,604.69,0.81,0.71,180.1464,"High_Value"
"MRI_faces_107",1,1,2,1,36,182.0262,"1017.jpg","2164.jpg",48,47,0,"y",2,1,591.15,0.23,0.24,183.1131,"Low_Value"
"MRI_faces_107",1,1,2,1,37,185.0267,"1192.jpg","2039.jpg",55,6,0,"y",4,1,477.6,0.18,0.84,185.9976,"Sanity"
"MRI_faces_107",1,1,2,1,38,188.0272,"2125.jpg","2015.jpg",10,8,1,"b",1,1,553.15,0.79,0.82,189.0798,"High_Value"
"MRI_faces_107",1,1,2,2,1,2.032158,"1191.jpg","1246.jpg",44,54,1,"b",2,1,755.06,0.31,0.21,3.28267,"Low_Value"
"MRI_faces_107",1,1,2,2,2,5.032728,"2194.jpg","1246.jpg",52,54,1,"b",2,1,546.49,0.22,0.21,6.073526,"Low_Value"
"MRI_faces_107",1,1,2,2,3,8.033218,"1216.jpg","1052.jpg",46,53,0,"y",2,1,545.04,0.25,0.22,9.073506,"Low_Value"
"MRI_faces_107",1,1,2,2,4,13.03405,"2125.jpg","2041.jpg",10,14,1,"b",1,1,666.18,0.79,0.7,14.19032,"High_Value"
"MRI_faces_107",1,1,2,2,5,18.0235,"1183.jpg","1017.jpg",45,48,1,"b",2,1,746.72,0.31,0.23,19.27376,"Low_Value"
"MRI_faces_107",1,1,2,2,6,25.02361,"1226.jpg","1150.jpg",50,51,1,"b",2,1,1336.62,0.22,0.22,26.87003,"Low_Value"
"MRI_faces_107",1,1,2,2,7,29.02366,"1204.jpg","1226.jpg",43,50,0,"y",2,1,861.59,0.32,0.22,30.39057,"Low_Value"
"MRI_faces_107",1,1,2,2,8,32.02372,"2024.jpg","2181.jpg",12,9,1,"y",1,0,801.5,0.77,0.81,33.32388,"High_Value"
"MRI_faces_107",1,1,2,2,9,39.02384,"1262.jpg","2248.jpg",16,13,0,"y",1,1,1075.4,0.66,0.71,40.60735,"High_Value"
"MRI_faces_107",1,1,2,2,10,43.02384,"1127.jpg","2039.jpg",56,6,0,"y",4,1,589.38,0.18,0.84,44.12297,"Sanity"
"MRI_faces_107",1,1,2,2,11,46.02398,"2125.jpg","1262.jpg",10,16,1,"b",1,1,595.24,0.79,0.66,47.12407,"High_Value"
"MRI_faces_107",1,1,2,2,12,50.02397,"2015.jpg","2045.jpg",8,15,0,"b",1,0,890.25,0.82,0.66,51.42435,"High_Value"
"MRI_faces_107",1,1,2,2,13,54.02457,"2024.jpg","2015.jpg",12,8,1,"b",1,1,768.65,0.77,0.82,55.29173,"High_Value"
"MRI_faces_107",1,1,2,2,14,59.02554,"1262.jpg","2153.jpg",16,7,0,"y",1,1,621.69,0.66,0.83,60.14251,"High_Value"
"MRI_faces_107",1,1,2,2,15,63.02619,"2015.jpg","2128.jpg",8,18,0,"b",1,0,906.04,0.82,0.64,64.42661,"High_Value"
"MRI_faces_107",1,1,2,2,16,67.02692,"2212.jpg","2125.jpg",11,10,0,"y",1,1,583.31,0.78,0.79,68.11058,"High_Value"
"MRI_faces_107",1,1,2,2,17,70.02746,"1127.jpg","2010.jpg",56,5,0,"y",4,1,1048.77,0.18,0.85,71.57783,"Sanity"
"MRI_faces_107",1,1,2,2,18,80.0291,"2015.jpg","2248.jpg",8,13,0,"y",1,1,742.12,0.82,0.71,81.27446,"High_Value"
"MRI_faces_107",1,1,2,2,19,84.02989,"1262.jpg","2024.jpg",16,12,0,"y",1,1,799.34,0.66,0.77,85.33032,"High_Value"
"MRI_faces_107",1,1,2,2,20,87.03034,"2125.jpg","2181.jpg",10,9,1,"b",1,1,607.89,0.79,0.81,88.14141,"High_Value"
"MRI_faces_107",1,1,2,2,21,90.03092,"2181.jpg","2128.jpg",9,18,0,"y",1,1,802.3,0.81,0.64,91.33129,"High_Value"
"MRI_faces_107",1,1,2,2,22,94.03157,"1183.jpg","1216.jpg",45,46,1,"y",2,0,661.64,0.31,0.25,95.19152,"Low_Value"
"MRI_faces_107",1,1,2,2,23,100.0326,"1150.jpg","1052.jpg",51,53,0,"y",2,1,1071.58,0.22,0.22,101.5998,"Low_Value"
"MRI_faces_107",1,1,2,2,24,103.0331,"1191.jpg","1216.jpg",44,46,1,"y",2,0,1059.14,0.31,0.25,104.5915,"Low_Value"
"MRI_faces_107",1,1,2,2,25,106.0248,"1262.jpg","2045.jpg",16,15,0,"y",1,1,565.45,0.66,0.66,107.0917,"High_Value"
"MRI_faces_107",1,1,2,2,26,110.0248,"1183.jpg","1145.jpg",45,49,1,"b",2,1,1123.38,0.31,0.23,111.6516,"Low_Value"
"MRI_faces_107",1,1,2,2,27,113.0248,"2194.jpg","1150.jpg",52,51,1,"y",2,0,779.4,0.22,0.22,114.3084,"Low_Value"
"MRI_faces_107",1,1,2,2,28,116.0248,"1017.jpg","1052.jpg",48,53,0,"b",2,0,1206.38,0.23,0.22,117.7358,"Low_Value"
"MRI_faces_107",1,1,2,2,29,130.0251,"1150.jpg","1191.jpg",51,44,0,"y",2,1,743.16,0.22,0.31,131.2751,"Low_Value"
"MRI_faces_107",1,1,2,2,30,140.0252,"2041.jpg","2128.jpg",14,18,0,"y",1,1,693.07,0.7,0.64,141.2253,"High_Value"
"MRI_faces_107",1,1,2,2,31,146.0252,"1226.jpg","1216.jpg",50,46,1,"y",2,0,607,0.22,0.25,147.1251,"Low_Value"
"MRI_faces_107",1,1,2,2,32,150.0254,"1183.jpg","1150.jpg",45,51,1,"b",2,1,983.86,0.31,0.22,151.5089,"Low_Value"
"MRI_faces_107",1,1,2,2,33,156.0258,"1216.jpg","2164.jpg",46,47,0,"y",2,1,783.43,0.25,0.24,157.3096,"Low_Value"
"MRI_faces_107",1,1,2,2,34,160.0264,"1114.jpg","2128.jpg",17,18,0,"y",1,1,890.82,0.64,0.64,161.4102,"High_Value"
"MRI_faces_107",1,1,2,2,35,166.0274,"2164.jpg","1204.jpg",47,43,1,"b",2,1,739.79,0.24,0.32,167.2613,"Low_Value"
"MRI_faces_107",1,1,2,2,36,178.0295,"1183.jpg","1204.jpg",45,43,1,"y",2,0,787.71,0.31,0.32,179.3132,"Low_Value"
"MRI_faces_107",1,1,2,2,37,181.03,"2045.jpg","1114.jpg",15,17,1,"b",1,1,450.2,0.66,0.64,181.9803,"High_Value"
"MRI_faces_107",1,1,2,2,38,188.0313,"2045.jpg","2212.jpg",15,11,1,"y",1,0,974.91,0.66,0.78,189.4983,"High_Value"
"MRI_faces_108",1,2,1,1,1,2.025525,"2094.jpg","1027.jpg",12,11,0,"y",1,1,888.21,0.71,0.72,3.415008,"High_Value"
"MRI_faces_108",1,2,1,1,2,5.025559,"2194.jpg","1146.jpg",49,50,1,"b",2,1,856.21,0.31,0.31,6.381048,"Low_Value"
"MRI_faces_108",1,2,1,1,3,8.025576,"1114.jpg","1013.jpg",17,7,1,"b",1,1,1127.19,0.62,0.76,9.648293,"High_Value"
"MRI_faces_108",1,2,1,1,4,13.02565,"2058.jpg","2194.jpg",53,49,0,"y",2,1,1201.1,0.29,0.31,14.72602,"Low_Value"
"MRI_faces_108",1,2,1,1,5,18.02574,"1216.jpg","1146.jpg",43,50,1,"b",2,1,1260,0.37,0.31,19.78343,"Low_Value"
"MRI_faces_108",1,2,1,1,6,25.02585,"2118.jpg","2094.jpg",14,12,1,"b",1,1,1368.91,0.63,0.71,26.89264,"High_Value"
"MRI_faces_108",1,2,1,1,7,29.02593,"2043.jpg","1246.jpg",48,45,1,"x",2,NA,999000,0.32,0.34,31.02606,"Low_Value"
"MRI_faces_108",1,2,1,1,8,32.02603,"1073.jpg","1027.jpg",15,11,0,"y",1,1,1133.73,0.62,0.72,33.65958,"High_Value"
"MRI_faces_108",1,2,1,1,9,39.02613,"2155.jpg","2043.jpg",47,48,0,"b",2,0,1023.62,0.34,0.32,40.54289,"Low_Value"
"MRI_faces_108",1,2,1,1,10,43.0262,"2118.jpg","1017.jpg",14,18,1,"b",1,1,1105.57,0.63,0.6,44.62626,"High_Value"
"MRI_faces_108",1,2,1,1,11,46.02625,"2229.jpg","1114.jpg",13,17,0,"y",1,1,1271.51,0.69,0.62,47.79308,"High_Value"
"MRI_faces_108",1,2,1,1,12,50.02628,"2058.jpg","2053.jpg",53,51,0,"y",2,1,1180.47,0.29,0.3,51.70566,"Low_Value"
"MRI_faces_108",1,2,1,1,13,54.02639,"2125.jpg","1017.jpg",8,18,1,"b",1,1,805.4,0.74,0.6,55.32646,"High_Value"
"MRI_faces_108",1,2,1,1,14,59.02637,"1246.jpg","2053.jpg",45,51,0,"b",2,0,1109.4,0.34,0.3,60.62654,"Low_Value"
"MRI_faces_108",1,2,1,1,15,63.02643,"2229.jpg","1019.jpg",13,9,0,"y",1,1,1219.31,0.69,0.73,64.7433,"High_Value"
"MRI_faces_108",1,2,1,1,16,67.02647,"2043.jpg","2128.jpg",48,44,1,"b",2,1,1036.3,0.32,0.34,68.55994,"Low_Value"
"MRI_faces_108",1,2,1,1,17,70.02655,"1052.jpg","2063.jpg",56,5,0,"y",4,1,1144.19,0.24,0.81,71.66011,"Sanity"
"MRI_faces_108",1,2,1,1,18,80.02727,"1013.jpg","2125.jpg",7,8,0,"y",1,1,796.51,0.76,0.74,81.31099,"High_Value"
"MRI_faces_108",1,2,1,1,19,84.02791,"1035.jpg","2063.jpg",55,5,0,"y",4,1,1265.85,0.24,0.81,85.77837,"Sanity"
"MRI_faces_108",1,2,1,1,20,87.02675,"2149.jpg","1146.jpg",54,50,1,"b",2,1,924.02,0.26,0.31,88.4455,"Low_Value"
"MRI_faces_108",1,2,1,1,21,90.02684,"1114.jpg","2153.jpg",17,10,1,"b",1,1,1142.93,0.62,0.72,91.66273,"High_Value"
"MRI_faces_108",1,2,1,1,22,94.02686,"2155.jpg","2194.jpg",47,49,0,"y",2,1,1179.89,0.34,0.31,95.69675,"Low_Value"
"MRI_faces_108",1,2,1,1,23,100.027,"1173.jpg","1146.jpg",46,50,1,"b",2,1,1169.72,0.34,0.31,101.6937,"Low_Value"
"MRI_faces_108",1,2,1,1,24,103.027,"2043.jpg","1183.jpg",48,52,1,"b",2,1,1011.74,0.32,0.3,104.5316,"Low_Value"
"MRI_faces_108",1,2,1,1,25,106.0271,"1007.jpg","2153.jpg",16,10,1,"b",1,1,1418.67,0.62,0.72,107.9438,"High_Value"
"MRI_faces_108",1,2,1,1,26,110.0271,"1173.jpg","2155.jpg",46,47,1,"b",2,1,1212.68,0.34,0.34,111.7328,"Low_Value"
"MRI_faces_108",1,2,1,1,27,113.0163,"2118.jpg","2229.jpg",14,13,1,"b",1,1,854.5,0.63,0.69,114.3773,"High_Value"
"MRI_faces_108",1,2,1,1,28,116.0168,"2229.jpg","2125.jpg",13,8,0,"y",1,1,1124.96,0.69,0.74,117.6507,"High_Value"
"MRI_faces_108",1,2,1,1,29,130.0273,"2229.jpg","1027.jpg",13,11,0,"y",1,1,1306.39,0.69,0.72,131.8275,"High_Value"
"MRI_faces_108",1,2,1,1,30,140.0275,"2058.jpg","2043.jpg",53,48,0,"x",2,NA,999000,0.29,0.32,142.0278,"Low_Value"
"MRI_faces_108",1,2,1,1,31,146.0276,"2155.jpg","2149.jpg",47,54,0,"b",2,0,996.16,0.34,0.26,147.5224,"Low_Value"
"MRI_faces_108",1,2,1,1,32,150.0276,"2155.jpg","2053.jpg",47,51,0,"y",2,1,1158.14,0.34,0.3,151.6779,"Low_Value"
"MRI_faces_108",1,2,1,1,33,156.0278,"2125.jpg","1073.jpg",8,15,1,"b",1,1,1075.97,0.74,0.62,157.5947,"High_Value"
"MRI_faces_108",1,2,1,1,34,160.0278,"2058.jpg","2149.jpg",53,54,0,"y",2,1,1100.97,0.29,0.26,161.6281,"Low_Value"
"MRI_faces_108",1,2,1,1,35,166.0278,"2118.jpg","2153.jpg",14,10,1,"b",1,1,1103.93,0.63,0.72,167.6281,"High_Value"
"MRI_faces_108",1,2,1,1,36,178.028,"2118.jpg","1073.jpg",14,15,1,"b",1,1,1001.74,0.63,0.62,179.5282,"High_Value"
"MRI_faces_108",1,2,1,1,37,181.0112,"2153.jpg","2125.jpg",10,8,0,"y",1,1,1017.53,0.72,0.74,182.5453,"High_Value"
"MRI_faces_108",1,2,1,1,38,188.0313,"1216.jpg","2155.jpg",43,47,1,"b",2,1,983.41,0.37,0.34,189.4964,"Low_Value"
"MRI_faces_108",1,2,1,2,1,2.015091,"2153.jpg","1019.jpg",10,9,0,"y",1,1,1074.54,0.72,0.73,3.597425,"High_Value"
"MRI_faces_108",1,2,1,2,2,6.015194,"1019.jpg","2094.jpg",9,12,1,"b",1,1,791.43,0.73,0.71,7.298658,"High_Value"
"MRI_faces_108",1,2,1,2,3,13.01526,"1146.jpg","2043.jpg",50,48,0,"b",2,0,1437.37,0.31,0.32,14.94879,"Low_Value"
"MRI_faces_108",1,2,1,2,4,16.0154,"2058.jpg","1173.jpg",53,46,0,"y",2,1,1131.24,0.29,0.34,17.64886,"Low_Value"
"MRI_faces_108",1,2,1,2,5,21.01597,"2128.jpg","2053.jpg",44,51,0,"y",2,1,1094.65,0.34,0.3,22.61646,"Low_Value"
"MRI_faces_108",1,2,1,2,6,31.01777,"1073.jpg","1007.jpg",15,16,0,"b",1,0,1265.84,0.62,0.62,32.78491,"High_Value"
"MRI_faces_108",1,2,1,2,7,34.01987,"1246.jpg","1173.jpg",45,46,0,"y",2,1,1160.73,0.34,0.34,35.66869,"Low_Value"
"MRI_faces_108",1,2,1,2,8,37.01877,"1013.jpg","1019.jpg",7,9,0,"x",1,NA,999000,0.76,0.73,39.01932,"High_Value"
"MRI_faces_108",1,2,1,2,9,46.02034,"1007.jpg","2229.jpg",16,13,1,"y",1,0,1018.27,0.62,0.69,47.53756,"High_Value"
"MRI_faces_108",1,2,1,2,10,49.02094,"1013.jpg","1027.jpg",7,11,0,"y",1,1,913.67,0.76,0.72,50.43267,"High_Value"
"MRI_faces_108",1,2,1,2,11,59.01592,"2128.jpg","1216.jpg",44,43,0,"y",2,1,819.7,0.34,0.37,60.33963,"Low_Value"
"MRI_faces_108",1,2,1,2,12,64.02351,"2212.jpg","1035.jpg",6,55,1,"b",4,1,1050.1,0.77,0.24,65.56619,"Sanity"
"MRI_faces_108",1,2,1,2,13,69.0161,"2128.jpg","2149.jpg",44,54,0,"b",2,0,1240.52,0.34,0.26,70.75822,"Low_Value"
"MRI_faces_108",1,2,1,2,14,77.01625,"2094.jpg","1007.jpg",12,16,0,"b",1,0,1189.39,0.71,0.62,78.70952,"High_Value"
"MRI_faces_108",1,2,1,2,15,84.01637,"2128.jpg","2194.jpg",44,49,0,"y",2,1,930.24,0.34,0.31,85.44981,"Low_Value"
"MRI_faces_108",1,2,1,2,16,88.01642,"2194.jpg","1246.jpg",49,45,1,"b",2,1,789.18,0.31,0.34,89.29981,"Low_Value"
"MRI_faces_108",1,2,1,2,17,91.01645,"2125.jpg","2094.jpg",8,12,1,"b",1,1,1182.15,0.74,0.71,92.69991,"High_Value"
"MRI_faces_108",1,2,1,2,18,96.01651,"1246.jpg","2149.jpg",45,54,0,"y",2,1,1126.1,0.34,0.26,97.64637,"Low_Value"
"MRI_faces_108",1,2,1,2,19,99.01653,"1216.jpg","1183.jpg",43,52,1,"b",2,1,1206.09,0.37,0.3,100.7167,"Low_Value"
"MRI_faces_108",1,2,1,2,20,107.0166,"1017.jpg","1019.jpg",18,9,0,"y",1,1,1076,0.6,0.73,108.5983,"High_Value"
"MRI_faces_108",1,2,1,2,21,113.0168,"1183.jpg","2053.jpg",52,51,0,"y",2,1,862.81,0.3,0.3,114.3836,"Low_Value"
"MRI_faces_108",1,2,1,2,22,118.0168,"1007.jpg","1017.jpg",16,18,1,"b",1,1,883.81,0.62,0.6,119.4002,"High_Value"
"MRI_faces_108",1,2,1,2,23,123.0172,"1216.jpg","2058.jpg",43,53,1,"b",2,1,928.43,0.37,0.29,124.4503,"Low_Value"
"MRI_faces_108",1,2,1,2,24,126.0202,"2153.jpg","1027.jpg",10,11,0,"b",1,0,1303.46,0.72,0.72,127.8181,"High_Value"
"MRI_faces_108",1,2,1,2,25,140.0204,"1007.jpg","1013.jpg",16,7,1,"b",1,1,1081.22,0.62,0.76,141.6006,"High_Value"
"MRI_faces_108",1,2,1,2,26,143.0207,"1073.jpg","1019.jpg",15,9,0,"y",1,1,836.91,0.62,0.73,144.3543,"High_Value"
"MRI_faces_108",1,2,1,2,27,147.0214,"1183.jpg","2149.jpg",52,54,0,"y",2,1,1007.24,0.3,0.26,148.5218,"Low_Value"
"MRI_faces_108",1,2,1,2,28,151.0172,"1027.jpg","1017.jpg",11,18,1,"b",1,1,994.38,0.72,0.6,152.5058,"High_Value"
"MRI_faces_108",1,2,1,2,29,154.0226,"2194.jpg","1183.jpg",49,52,1,"b",2,1,881.04,0.31,0.3,155.4008,"Low_Value"
"MRI_faces_108",1,2,1,2,30,157.0173,"1216.jpg","1246.jpg",43,45,1,"b",2,1,1046.33,0.37,0.34,158.5676,"Low_Value"
"MRI_faces_108",1,2,1,2,31,163.0174,"1017.jpg","1114.jpg",18,17,0,"y",1,1,1191.26,0.6,0.62,164.7079,"High_Value"
"MRI_faces_108",1,2,1,2,32,169.0175,"2118.jpg","1013.jpg",14,7,1,"b",1,1,1016.07,0.63,0.76,170.5343,"High_Value"
"MRI_faces_108",1,2,1,2,33,172.0191,"1173.jpg","1183.jpg",46,52,1,"b",2,1,1304.5,0.34,0.3,173.8262,"Low_Value"
"MRI_faces_108",1,2,1,2,34,175.0176,"2212.jpg","1052.jpg",6,56,1,"b",4,1,1458.04,0.77,0.24,176.9767,"Sanity"
"MRI_faces_108",1,2,1,2,35,179.0177,"1173.jpg","2128.jpg",46,44,1,"y",2,0,1028.93,0.34,0.34,180.5441,"Low_Value"
"MRI_faces_108",1,2,1,2,36,182.0186,"2053.jpg","1146.jpg",51,50,1,"b",2,1,882,0.3,0.31,183.4011,"Low_Value"
"MRI_faces_108",1,2,1,2,37,185.0177,"1114.jpg","2094.jpg",17,12,1,"y",1,0,940.94,0.62,0.71,186.4617,"High_Value"
"MRI_faces_108",1,2,1,2,38,188.0188,"1114.jpg","1073.jpg",17,15,1,"b",1,1,988.88,0.62,0.62,189.5012,"High_Value"
"MRI_faces_108",1,2,2,1,1,2.013265,"1017.jpg","2118.jpg",18,14,0,"y",1,1,1105.64,0.6,0.63,3.624934,"High_Value"
"MRI_faces_108",1,2,2,1,2,6.013992,"1114.jpg","2153.jpg",17,10,1,"y",1,0,915.9,0.62,0.72,7.431074,"High_Value"
"MRI_faces_108",1,2,2,1,3,9.014598,"2153.jpg","1019.jpg",10,9,0,"b",1,0,684.26,0.72,0.73,10.20735,"High_Value"
"MRI_faces_108",1,2,2,1,4,14.02394,"2094.jpg","2125.jpg",12,8,0,"y",1,1,1082.93,0.71,0.74,15.59935,"High_Value"
"MRI_faces_108",1,2,2,1,5,17.02396,"2149.jpg","2058.jpg",54,53,1,"b",2,1,844.95,0.26,0.29,18.36635,"Low_Value"
"MRI_faces_108",1,2,2,1,6,20.024,"2229.jpg","1019.jpg",13,9,0,"y",1,1,983.87,0.69,0.73,21.50748,"High_Value"
"MRI_faces_108",1,2,2,1,7,34.02423,"2155.jpg","2149.jpg",47,54,0,"y",2,1,738.65,0.34,0.26,35.25766,"Low_Value"
"MRI_faces_108",1,2,2,1,8,38.02428,"2053.jpg","2155.jpg",51,47,1,"b",2,1,685.62,0.3,0.34,39.20776,"Low_Value"
"MRI_faces_108",1,2,2,1,9,42.02429,"2125.jpg","2229.jpg",8,13,1,"b",1,1,751.6,0.74,0.69,43.27451,"High_Value"
"MRI_faces_108",1,2,2,1,10,45.02088,"1246.jpg","2053.jpg",45,51,0,"y",2,1,719.99,0.34,0.3,46.24121,"Low_Value"
"MRI_faces_108",1,2,2,1,11,48.02148,"2128.jpg","2043.jpg",44,48,0,"y",2,1,726.39,0.34,0.32,49.2413,"Low_Value"
"MRI_faces_108",1,2,2,1,12,53.0222,"1216.jpg","1246.jpg",43,45,1,"b",2,1,945.69,0.37,0.34,54.4579,"Low_Value"
"MRI_faces_108",1,2,2,1,13,56.02276,"1246.jpg","1173.jpg",45,46,0,"b",2,0,1060.11,0.34,0.34,57.57474,"Low_Value"
"MRI_faces_108",1,2,2,1,14,66.00767,"1073.jpg","2118.jpg",15,14,0,"b",1,0,1127.2,0.62,0.63,67.64161,"High_Value"
"MRI_faces_108",1,2,2,1,15,72.00891,"1013.jpg","2118.jpg",7,14,0,"y",1,1,838.98,0.76,0.63,73.35923,"High_Value"
"MRI_faces_108",1,2,2,1,16,75.00941,"1027.jpg","1073.jpg",11,15,1,"b",1,1,1098.46,0.72,0.62,76.60984,"High_Value"
"MRI_faces_108",1,2,2,1,17,79.01016,"1027.jpg","2094.jpg",11,12,1,"y",1,0,1485.71,0.72,0.71,81.00809,"High_Value"
"MRI_faces_108",1,2,2,1,18,84.01108,"1216.jpg","1146.jpg",43,50,1,"b",2,1,805.83,0.37,0.31,85.32797,"Low_Value"
"MRI_faces_108",1,2,2,1,19,91.01226,"1146.jpg","1173.jpg",50,46,0,"y",2,1,1157.6,0.31,0.34,92.67931,"Low_Value"
"MRI_faces_108",1,2,2,1,20,96.01311,"2149.jpg","1146.jpg",54,50,1,"b",2,1,991.77,0.26,0.31,97.5135,"Low_Value"
"MRI_faces_108",1,2,2,1,21,99.01365,"2118.jpg","2229.jpg",14,13,1,"b",1,1,1181.22,0.63,0.69,100.6974,"High_Value"
"MRI_faces_108",1,2,2,1,22,105.0146,"1013.jpg","1019.jpg",7,9,0,"b",1,0,630.25,0.76,0.73,106.1483,"High_Value"
"MRI_faces_108",1,2,2,1,23,109.0153,"2063.jpg","1035.jpg",5,55,1,"b",4,1,1297.57,0.81,0.24,110.8158,"Sanity"
"MRI_faces_108",1,2,2,1,24,121.0172,"2149.jpg","2128.jpg",54,44,1,"b",2,1,1064.67,0.26,0.34,122.5846,"Low_Value"
"MRI_faces_108",1,2,2,1,25,124.0178,"2155.jpg","1173.jpg",47,46,0,"b",2,0,1146.09,0.34,0.34,125.6684,"Low_Value"
"MRI_faces_108",1,2,2,1,26,127.0183,"1146.jpg","2053.jpg",50,51,0,"y",2,1,731.61,0.31,0.3,128.2523,"Low_Value"
"MRI_faces_108",1,2,2,1,27,131.019,"1017.jpg","1114.jpg",18,17,0,"y",1,1,936.81,0.6,0.62,132.4591,"High_Value"
"MRI_faces_108",1,2,2,1,28,137.02,"2125.jpg","1013.jpg",8,7,1,"b",1,1,780.91,0.74,0.76,138.3039,"High_Value"
"MRI_faces_108",1,2,2,1,29,140.0206,"2063.jpg","1052.jpg",5,56,1,"b",4,1,857.3,0.81,0.24,141.3758,"Sanity"
"MRI_faces_108",1,2,2,1,30,149.0224,"1173.jpg","1183.jpg",46,52,1,"b",2,1,992.52,0.34,0.3,150.5094,"Low_Value"
"MRI_faces_108",1,2,2,1,31,153.023,"2128.jpg","1216.jpg",44,43,0,"y",2,1,756.89,0.34,0.37,154.2761,"Low_Value"
"MRI_faces_108",1,2,2,1,32,157.0092,"1013.jpg","1114.jpg",7,17,0,"y",1,1,779.65,0.76,0.62,158.2927,"High_Value"
"MRI_faces_108",1,2,2,1,33,160.0259,"2194.jpg","1146.jpg",49,50,1,"b",2,1,699.96,0.31,0.31,161.2092,"Low_Value"
"MRI_faces_108",1,2,2,1,34,163.0091,"1073.jpg","1114.jpg",15,17,0,"y",1,1,1073.81,0.62,0.62,164.5929,"High_Value"
"MRI_faces_108",1,2,2,1,35,173.01,"1027.jpg","2153.jpg",11,10,1,"b",1,1,674.91,0.72,0.72,174.1935,"High_Value"
"MRI_faces_108",1,2,2,1,36,177.0106,"1027.jpg","2229.jpg",11,13,1,"b",1,1,846.23,0.72,0.69,178.361,"High_Value"
"MRI_faces_108",1,2,2,1,37,185.012,"2058.jpg","2194.jpg",53,49,0,"y",2,1,992.94,0.29,0.31,186.5123,"Low_Value"
"MRI_faces_108",1,2,2,1,38,188.0133,"2194.jpg","2155.jpg",49,47,1,"b",2,1,674.54,0.31,0.34,189.1962,"Low_Value"
"MRI_faces_108",1,2,2,2,1,2.013922,"1183.jpg","2053.jpg",52,51,0,"y",2,1,980.54,0.3,0.3,3.498644,"Low_Value"
"MRI_faces_108",1,2,2,2,2,6.014458,"2058.jpg","2043.jpg",53,48,0,"y",2,1,1105,0.29,0.32,7.627585,"Low_Value"
"MRI_faces_108",1,2,2,2,3,13.01587,"2125.jpg","2153.jpg",8,10,1,"y",1,0,1366.63,0.74,0.72,14.88301,"High_Value"
"MRI_faces_108",1,2,2,2,4,16.01642,"2043.jpg","1146.jpg",48,50,1,"b",2,1,1063.05,0.32,0.31,17.58346,"Low_Value"
"MRI_faces_108",1,2,2,2,5,21.01732,"1216.jpg","2155.jpg",43,47,1,"b",2,1,978.15,0.37,0.34,22.50104,"Low_Value"
"MRI_faces_108",1,2,2,2,6,31.01901,"2128.jpg","2194.jpg",44,49,0,"y",2,1,798.44,0.34,0.31,32.31943,"Low_Value"
"MRI_faces_108",1,2,2,2,7,34.01958,"2058.jpg","1216.jpg",53,43,0,"y",2,1,1198.89,0.29,0.37,35.72001,"Low_Value"
"MRI_faces_108",1,2,2,2,8,37.02007,"1007.jpg","1017.jpg",16,18,1,"b",1,1,1316.38,0.62,0.6,38.83722,"High_Value"
"MRI_faces_108",1,2,2,2,9,46.02174,"1013.jpg","1007.jpg",7,16,0,"b",1,0,1188.71,0.76,0.62,47.71149,"High_Value"
"MRI_faces_108",1,2,2,2,10,49.02221,"2153.jpg","1007.jpg",10,16,0,"b",1,0,1194.25,0.72,0.62,50.71157,"High_Value"
"MRI_faces_108",1,2,2,2,11,59.01155,"2194.jpg","1183.jpg",49,52,1,"b",2,1,728.9,0.31,0.3,60.24502,"Low_Value"
"MRI_faces_108",1,2,2,2,12,64.0117,"2043.jpg","2155.jpg",48,47,1,"b",2,1,800.75,0.32,0.34,65.31185,"Low_Value"
"MRI_faces_108",1,2,2,2,13,69.01172,"1035.jpg","2212.jpg",55,6,0,"y",4,1,943.72,0.24,0.77,70.46201,"Sanity"
"MRI_faces_108",1,2,2,2,14,77.01188,"1114.jpg","2229.jpg",17,13,1,"b",1,1,864.59,0.62,0.69,78.3787,"High_Value"
"MRI_faces_108",1,2,2,2,15,84.01195,"2094.jpg","2118.jpg",12,14,0,"b",1,0,1349.51,0.71,0.63,85.86212,"High_Value"
"MRI_faces_108",1,2,2,2,16,88.01232,"1173.jpg","2128.jpg",46,44,1,"y",2,0,1167.13,0.34,0.34,89.67953,"Low_Value"
"MRI_faces_108",1,2,2,2,17,91.01287,"2094.jpg","1114.jpg",12,17,0,"b",1,0,1317.59,0.71,0.62,92.83002,"High_Value"
"MRI_faces_108",1,2,2,2,18,96.01376,"1073.jpg","1019.jpg",15,9,0,"y",1,1,1386.7,0.62,0.73,97.89752,"High_Value"
"MRI_faces_108",1,2,2,2,19,99.01433,"1017.jpg","1019.jpg",18,9,0,"y",1,1,773.13,0.6,0.73,100.2956,"High_Value"
"MRI_faces_108",1,2,2,2,20,107.0156,"2149.jpg","1183.jpg",54,52,1,"b",2,1,1090.82,0.26,0.3,108.6124,"Low_Value"
