"subjectID","scanner","order","block","run","trial","onsettime","ImageLeft","ImageRight","bidIndexLeft","bidIndexRight","IsleftGo","Response","PairType","Outcome","RT","bidLeft","bidRight","FixationTime","PairType2"
"MRI_faces_102",1,2,3,1,1,2.027263,"1130.jpg","1052.jpg",44,49,0,"y",2,1,1209.53,0.35,0.28,3.731741,"Low_Value"
"MRI_faces_102",1,2,3,1,2,6.02808,"1052.jpg","1150.jpg",49,53,1,"y",2,0,1164.74,0.28,0.22,7.680785,"Low_Value"
"MRI_faces_102",1,2,3,1,3,13.0292,"1216.jpg","2212.jpg",16,10,1,"y",1,0,836.64,0.68,0.75,14.36423,"High_Value"
"MRI_faces_102",1,2,3,1,4,16.02985,"2089.jpg","2181.jpg",15,9,0,"y",1,1,967.99,0.68,0.76,17.49762,"High_Value"
"MRI_faces_102",1,2,3,1,5,21.01405,"1173.jpg","1150.jpg",54,53,1,"y",2,0,944.77,0.21,0.22,22.46445,"Low_Value"
"MRI_faces_102",1,2,3,1,6,31.01584,"1216.jpg","1191.jpg",16,18,1,"b",1,1,861,0.68,0.66,32.38282,"High_Value"
"MRI_faces_102",1,2,3,1,7,34.01855,"1192.jpg","2149.jpg",47,46,0,"y",2,1,900.27,0.29,0.29,35.41665,"Low_Value"
"MRI_faces_102",1,2,3,1,8,37.01682,"2010.jpg","1035.jpg",8,7,1,"b",1,1,740,0.77,0.79,38.2671,"High_Value"
"MRI_faces_102",1,2,3,1,9,46.01829,"2015.jpg","1191.jpg",14,18,1,"b",1,1,704.53,0.7,0.66,47.23139,"High_Value"
"MRI_faces_102",1,2,3,1,10,49.01889,"1191.jpg","2010.jpg",18,8,0,"y",1,1,732.95,0.66,0.77,50.25263,"High_Value"
"MRI_faces_102",1,2,3,1,11,59.02063,"1130.jpg","2149.jpg",44,46,0,"b",2,0,1133.2,0.35,0.29,60.65438,"Low_Value"
"MRI_faces_102",1,2,3,1,12,64.02159,"1035.jpg","1031.jpg",7,17,0,"b",1,0,1146.24,0.79,0.67,65.672,"High_Value"
"MRI_faces_102",1,2,3,1,13,69.02244,"1013.jpg","1127.jpg",45,51,0,"b",2,0,1027.38,0.29,0.24,70.55616,"Low_Value"
"MRI_faces_102",1,2,3,1,14,77.02378,"2118.jpg","2110.jpg",5,56,1,"b",4,1,807.04,0.85,0.16,78.33189,"Sanity"
"MRI_faces_102",1,2,3,1,15,84.02507,"2153.jpg","2181.jpg",12,9,0,"y",1,1,994.79,0.72,0.76,85.51534,"High_Value"
"MRI_faces_102",1,2,3,1,16,88.02573,"2110.jpg","1114.jpg",56,6,0,"b",4,0,1165.1,0.16,0.82,89.6928,"Sanity"
"MRI_faces_102",1,2,3,1,17,91.02632,"1027.jpg","2045.jpg",48,50,1,"y",2,0,883.52,0.28,0.24,92.40993,"Low_Value"
"MRI_faces_102",1,2,3,1,18,96.0271,"2010.jpg","2153.jpg",8,12,1,"b",1,1,1177.72,0.77,0.72,97.69878,"High_Value"
"MRI_faces_102",1,2,3,1,19,99.02765,"1060.jpg","1027.jpg",52,48,0,"b",2,0,1177.15,0.24,0.28,100.6988,"Low_Value"
"MRI_faces_102",1,2,3,1,20,107.029,"2010.jpg","2248.jpg",8,13,1,"b",1,1,1040.81,0.77,0.72,108.5657,"High_Value"
"MRI_faces_102",1,2,3,1,21,113.0156,"2181.jpg","1191.jpg",9,18,1,"b",1,1,692.24,0.76,0.66,114.2158,"High_Value"
"MRI_faces_102",1,2,3,1,22,118.0156,"1150.jpg","1027.jpg",53,48,0,"y",2,1,1265.2,0.22,0.28,119.7824,"Low_Value"
"MRI_faces_102",1,2,3,1,23,123.0157,"1173.jpg","1192.jpg",54,47,1,"y",2,0,975.11,0.21,0.29,124.4992,"Low_Value"
"MRI_faces_102",1,2,3,1,24,126.0158,"1216.jpg","1035.jpg",16,7,1,"b",1,1,1211.06,0.68,0.79,127.7327,"High_Value"
"MRI_faces_102",1,2,3,1,25,140.0188,"1262.jpg","1191.jpg",11,18,1,"y",1,0,871.01,0.73,0.66,141.3994,"High_Value"
"MRI_faces_102",1,2,3,1,26,143.0187,"2045.jpg","1127.jpg",50,51,0,"y",2,1,978.09,0.24,0.24,144.5024,"Low_Value"
"MRI_faces_102",1,2,3,1,27,147.0194,"2248.jpg","2181.jpg",13,9,0,"y",1,1,1056.45,0.72,0.76,148.5864,"High_Value"
"MRI_faces_102",1,2,3,1,28,151.02,"2153.jpg","1031.jpg",12,17,0,"b",1,0,909.78,0.72,0.67,152.437,"High_Value"
"MRI_faces_102",1,2,3,1,29,154.0206,"2212.jpg","2015.jpg",10,14,0,"y",1,1,965.27,0.75,0.7,155.4878,"High_Value"
"MRI_faces_102",1,2,3,1,30,157.0211,"1192.jpg","1027.jpg",47,48,0,"y",2,1,1167.68,0.29,0.28,158.6881,"Low_Value"
"MRI_faces_102",1,2,3,1,31,163.0221,"2149.jpg","1013.jpg",46,45,1,"y",2,0,954.68,0.29,0.29,164.483,"Low_Value"
"MRI_faces_102",1,2,3,1,32,169.0232,"2181.jpg","2212.jpg",9,10,1,"b",1,1,1389.58,0.76,0.75,170.9165,"High_Value"
"MRI_faces_102",1,2,3,1,33,172.0237,"1191.jpg","1031.jpg",18,17,0,"y",1,1,1004.14,0.66,0.67,173.5332,"High_Value"
"MRI_faces_102",1,2,3,1,34,175.0243,"1060.jpg","1019.jpg",52,43,0,"b",2,0,1356.56,0.24,0.35,176.8832,"Low_Value"
"MRI_faces_102",1,2,3,1,35,179.025,"1060.jpg","1127.jpg",52,51,0,"b",2,0,1139.85,0.24,0.24,180.6666,"Low_Value"
"MRI_faces_102",1,2,3,1,36,182.0254,"1019.jpg","2045.jpg",43,50,1,"x",2,NA,999000,0.35,0.24,184.0258,"Low_Value"
"MRI_faces_102",1,2,3,1,37,185.026,"1019.jpg","1130.jpg",43,44,1,"y",2,0,695.87,0.35,0.35,186.2167,"Low_Value"
"MRI_faces_102",1,2,3,1,38,188.0265,"1052.jpg","1192.jpg",49,47,1,"b",2,1,1111.37,0.28,0.29,189.6333,"Low_Value"
"MRI_faces_102",1,2,3,2,1,2.021738,"1192.jpg","1019.jpg",47,43,0,"b",2,0,1204.64,0.29,0.35,3.723109,"Low_Value"
"MRI_faces_102",1,2,3,2,2,6.022418,"1013.jpg","1019.jpg",45,43,0,"y",2,1,960.95,0.29,0.35,7.481505,"Low_Value"
"MRI_faces_102",1,2,3,2,3,9.022886,"2248.jpg","1216.jpg",13,16,0,"b",1,0,622.49,0.72,0.68,10.13987,"High_Value"
"MRI_faces_102",1,2,3,2,4,14.02382,"1013.jpg","1052.jpg",45,49,0,"y",2,1,955.54,0.29,0.28,15.47417,"Low_Value"
"MRI_faces_102",1,2,3,2,5,17.01482,"1262.jpg","1035.jpg",11,7,1,"y",1,0,853.56,0.73,0.79,18.37468,"High_Value"
"MRI_faces_102",1,2,3,2,6,20.01484,"1114.jpg","1246.jpg",6,55,1,"b",4,1,924.55,0.82,0.21,21.44841,"Sanity"
"MRI_faces_102",1,2,3,2,7,34.01511,"2089.jpg","1031.jpg",15,17,0,"b",1,0,839.25,0.68,0.67,35.36101,"High_Value"
"MRI_faces_102",1,2,3,2,8,38.01521,"1035.jpg","2015.jpg",7,14,0,"y",1,1,784.16,0.79,0.7,39.29872,"High_Value"
"MRI_faces_102",1,2,3,2,9,42.01526,"2089.jpg","2010.jpg",15,8,0,"y",1,1,1126.1,0.68,0.77,43.64868,"High_Value"
"MRI_faces_102",1,2,3,2,10,45.01531,"1262.jpg","2212.jpg",11,10,1,"y",1,0,848.08,0.73,0.75,46.36545,"High_Value"
"MRI_faces_102",1,2,3,2,11,48.01536,"1052.jpg","1060.jpg",49,52,1,"y",2,0,1107.03,0.28,0.24,49.63022,"Low_Value"
"MRI_faces_102",1,2,3,2,12,53.01533,"1130.jpg","1027.jpg",44,48,0,"y",2,1,1147.01,0.35,0.28,54.66558,"Low_Value"
"MRI_faces_102",1,2,3,2,13,56.01538,"1027.jpg","1013.jpg",48,45,1,"b",2,1,1198.99,0.28,0.29,57.71556,"Low_Value"
"MRI_faces_102",1,2,3,2,14,66.01879,"1173.jpg","1013.jpg",54,45,1,"y",2,0,835.56,0.21,0.29,67.35,"Low_Value"
"MRI_faces_102",1,2,3,2,15,72.01945,"1060.jpg","1173.jpg",52,54,0,"b",2,0,1003.9,0.24,0.21,73.51769,"Low_Value"
"MRI_faces_102",1,2,3,2,16,75.01779,"1262.jpg","2248.jpg",11,13,1,"y",1,0,673.59,0.73,0.72,76.18478,"High_Value"
"MRI_faces_102",1,2,3,2,17,79.01859,"2089.jpg","1262.jpg",15,11,0,"b",1,0,690.76,0.68,0.73,80.20229,"High_Value"
"MRI_faces_102",1,2,3,2,18,84.01941,"1150.jpg","2149.jpg",53,46,0,"y",2,1,649.96,0.22,0.29,85.16968,"Low_Value"
"MRI_faces_102",1,2,3,2,19,91.02065,"2153.jpg","1262.jpg",12,11,0,"b",1,0,640.72,0.72,0.73,92.15433,"High_Value"
"MRI_faces_102",1,2,3,2,20,96.0216,"1052.jpg","2045.jpg",49,50,1,"b",2,1,993.77,0.28,0.24,97.51614,"Low_Value"
"MRI_faces_102",1,2,3,2,21,99.02207,"1127.jpg","1192.jpg",51,47,1,"b",2,1,1202.3,0.24,0.29,100.7224,"Low_Value"
"MRI_faces_102",1,2,3,2,22,105.023,"2118.jpg","1246.jpg",5,55,1,"b",4,1,870.33,0.85,0.21,106.3901,"Sanity"
"MRI_faces_102",1,2,3,2,23,109.0238,"1031.jpg","2212.jpg",17,10,1,"y",1,0,696.61,0.67,0.75,110.2163,"High_Value"
"MRI_faces_102",1,2,3,2,24,121.0164,"2212.jpg","2010.jpg",10,8,0,"y",1,1,1014,0.75,0.77,122.5332,"High_Value"
"MRI_faces_102",1,2,3,2,25,124.0164,"1031.jpg","2248.jpg",17,13,1,"y",1,0,582.95,0.67,0.72,125.0999,"High_Value"
"MRI_faces_102",1,2,3,2,26,127.0165,"1019.jpg","1150.jpg",43,53,1,"y",2,0,946.93,0.35,0.22,128.4666,"Low_Value"
"MRI_faces_102",1,2,3,2,27,131.0164,"2045.jpg","2149.jpg",50,46,0,"y",2,1,726.91,0.24,0.29,132.2499,"Low_Value"
"MRI_faces_102",1,2,3,2,28,137.0165,"1130.jpg","1127.jpg",44,51,0,"y",2,1,908.84,0.35,0.24,138.429,"Low_Value"
"MRI_faces_102",1,2,3,2,29,140.0166,"2181.jpg","1035.jpg",9,7,1,"b",1,1,675.81,0.76,0.79,141.1962,"High_Value"
"MRI_faces_102",1,2,3,2,30,149.0167,"2015.jpg","2153.jpg",14,12,1,"b",1,1,896.71,0.7,0.72,150.4168,"High_Value"
"MRI_faces_102",1,2,3,2,31,153.0167,"1216.jpg","2153.jpg",16,12,1,"y",1,0,672.63,0.68,0.72,154.1836,"High_Value"
"MRI_faces_102",1,2,3,2,32,157.0168,"1060.jpg","2149.jpg",52,46,0,"b",2,0,1107.58,0.24,0.29,158.617,"Low_Value"
"MRI_faces_102",1,2,3,2,33,160.0174,"1173.jpg","1130.jpg",54,44,1,"y",2,0,1053.98,0.21,0.35,161.567,"Low_Value"
"MRI_faces_102",1,2,3,2,34,163.0169,"1173.jpg","2045.jpg",54,50,1,"y",2,0,737.48,0.21,0.24,164.2503,"Low_Value"
"MRI_faces_102",1,2,3,2,35,173.0183,"2248.jpg","2015.jpg",13,14,0,"y",1,1,1053.12,0.72,0.7,174.5686,"High_Value"
"MRI_faces_102",1,2,3,2,36,177.0189,"2089.jpg","2015.jpg",15,14,0,"y",1,1,636.45,0.68,0.7,178.1527,"High_Value"
"MRI_faces_102",1,2,3,2,37,185.0203,"2089.jpg","1216.jpg",15,16,0,"b",1,0,745.07,0.68,0.68,186.2673,"High_Value"
"MRI_faces_102",1,2,3,2,38,188.0207,"1127.jpg","1150.jpg",51,53,1,"y",2,0,828.64,0.24,0.22,189.3507,"Low_Value"
"MRI_faces_102",1,2,4,1,1,2.012246,"1019.jpg","1130.jpg",43,44,1,"y",2,0,948.79,0.35,0.35,3.463643,"Low_Value"
"MRI_faces_102",1,2,4,1,2,6.012889,"1262.jpg","2089.jpg",11,15,1,"y",1,0,701.11,0.73,0.68,7.213246,"High_Value"
"MRI_faces_102",1,2,4,1,3,13.01414,"1127.jpg","1192.jpg",51,47,1,"b",2,1,838.88,0.24,0.29,14.362,"Low_Value"
"MRI_faces_102",1,2,4,1,4,16.01522,"2149.jpg","1060.jpg",46,52,1,"y",2,0,917.82,0.29,0.24,17.43171,"Low_Value"
"MRI_faces_102",1,2,4,1,5,21.01552,"2045.jpg","1173.jpg",50,54,0,"y",2,1,1121.52,0.24,0.21,22.63255,"Low_Value"
"MRI_faces_102",1,2,4,1,6,31.01728,"1035.jpg","2010.jpg",7,8,0,"y",1,1,898.75,0.79,0.77,32.41761,"High_Value"
"MRI_faces_102",1,2,4,1,7,34.01789,"1027.jpg","1150.jpg",48,53,1,"b",2,1,1094.14,0.28,0.22,35.61203,"Low_Value"
"MRI_faces_102",1,2,4,1,8,37.01836,"1246.jpg","2118.jpg",55,5,0,"y",4,1,909.65,0.21,0.85,38.429,"Sanity"
"MRI_faces_102",1,2,4,1,9,46.01988,"2089.jpg","2181.jpg",15,9,0,"y",1,1,1151.15,0.68,0.76,47.67026,"High_Value"
"MRI_faces_102",1,2,4,1,10,49.02049,"1173.jpg","1150.jpg",54,53,1,"y",2,0,988.54,0.21,0.22,50.50418,"Low_Value"
"MRI_faces_102",1,2,4,1,11,59.0222,"1127.jpg","2045.jpg",51,50,1,"b",2,1,1086.82,0.24,0.24,60.60586,"Low_Value"
"MRI_faces_102",1,2,4,1,12,64.02284,"1027.jpg","1130.jpg",48,44,1,"y",2,0,1177.21,0.28,0.35,65.696,"Low_Value"
"MRI_faces_102",1,2,4,1,13,69.0127,"2089.jpg","2015.jpg",15,14,0,"y",1,1,752.34,0.68,0.7,70.27433,"High_Value"
"MRI_faces_102",1,2,4,1,14,77.0128,"1035.jpg","1216.jpg",7,16,0,"b",1,0,869.23,0.79,0.68,78.37958,"High_Value"
"MRI_faces_102",1,2,4,1,15,84.01284,"1127.jpg","1060.jpg",51,52,1,"b",2,1,954.16,0.24,0.24,85.46305,"Low_Value"
"MRI_faces_102",1,2,4,1,16,88.01289,"1191.jpg","2181.jpg",18,9,0,"y",1,1,659.14,0.66,0.76,89.17976,"High_Value"
"MRI_faces_102",1,2,4,1,17,91.01294,"1216.jpg","1191.jpg",16,18,1,"b",1,1,915.1,0.68,0.66,92.42979,"High_Value"
"MRI_faces_102",1,2,4,1,18,96.01305,"2248.jpg","1216.jpg",13,16,0,"b",1,0,647.98,0.72,0.68,97.16316,"High_Value"
"MRI_faces_102",1,2,4,1,19,99.01307,"2089.jpg","2010.jpg",15,8,0,"y",1,1,1100.98,0.68,0.77,100.6132,"High_Value"
"MRI_faces_102",1,2,4,1,20,107.014,"1150.jpg","1019.jpg",53,43,0,"y",2,1,957.08,0.22,0.35,108.4801,"Low_Value"
"MRI_faces_102",1,2,4,1,21,113.015,"1052.jpg","1013.jpg",49,45,1,"b",2,1,1043.02,0.28,0.29,114.5653,"Low_Value"
"MRI_faces_102",1,2,4,1,22,118.0158,"1262.jpg","1035.jpg",11,7,1,"y",1,0,945.25,0.73,0.79,119.4661,"High_Value"
"MRI_faces_102",1,2,4,1,23,123.0167,"2153.jpg","1031.jpg",12,17,0,"b",1,0,896.37,0.72,0.67,124.4171,"High_Value"
"MRI_faces_102",1,2,4,1,24,126.0173,"2010.jpg","2212.jpg",8,10,1,"b",1,1,1001.77,0.77,0.75,127.5176,"High_Value"
"MRI_faces_102",1,2,4,1,25,140.0197,"1013.jpg","1173.jpg",45,54,0,"y",2,1,858.34,0.29,0.21,141.3804,"Low_Value"
"MRI_faces_102",1,2,4,1,26,143.0202,"2015.jpg","2153.jpg",14,12,1,"b",1,1,903.81,0.7,0.72,144.4205,"High_Value"
"MRI_faces_102",1,2,4,1,27,147.0209,"1031.jpg","2089.jpg",17,15,1,"y",1,0,832.14,0.67,0.68,148.3545,"High_Value"
"MRI_faces_102",1,2,4,1,28,151.0216,"1191.jpg","1031.jpg",18,17,0,"y",1,1,1025.45,0.66,0.67,152.5473,"High_Value"
"MRI_faces_102",1,2,4,1,29,154.0221,"1192.jpg","2149.jpg",47,46,0,"b",2,0,943.98,0.29,0.29,155.464,"Low_Value"
"MRI_faces_102",1,2,4,1,30,157.0226,"1246.jpg","1114.jpg",55,6,0,"y",4,1,1112.45,0.21,0.82,158.6307,"Sanity"
"MRI_faces_102",1,2,4,1,31,163.0237,"1013.jpg","1019.jpg",45,43,0,"b",2,0,870.33,0.29,0.35,164.3906,"Low_Value"
"MRI_faces_102",1,2,4,1,32,169.014,"2149.jpg","2045.jpg",46,50,1,"y",2,0,1020.03,0.29,0.24,170.5418,"Low_Value"
"MRI_faces_102",1,2,4,1,33,172.0165,"2153.jpg","2181.jpg",12,9,0,"y",1,1,1242.53,0.72,0.76,173.7642,"High_Value"
"MRI_faces_102",1,2,4,1,34,175.0142,"2149.jpg","1013.jpg",46,45,1,"y",2,0,923.82,0.29,0.29,176.4427,"Low_Value"
"MRI_faces_102",1,2,4,1,35,179.0141,"1173.jpg","1192.jpg",54,47,1,"y",2,0,860.94,0.21,0.29,180.381,"Low_Value"
"MRI_faces_102",1,2,4,1,36,182.0144,"2045.jpg","1027.jpg",50,48,0,"y",2,1,911.66,0.24,0.28,183.431,"Low_Value"
"MRI_faces_102",1,2,4,1,37,185.0142,"1262.jpg","2212.jpg",11,10,1,"y",1,0,712.79,0.73,0.75,186.2312,"High_Value"
"MRI_faces_102",1,2,4,1,38,188.0142,"1035.jpg","1031.jpg",7,17,0,"b",1,0,920.78,0.79,0.67,189.4312,"High_Value"
"MRI_faces_102",1,2,4,2,1,2.021751,"2153.jpg","2010.jpg",12,8,0,"y",1,1,997.75,0.72,0.77,3.514797,"High_Value"
"MRI_faces_102",1,2,4,2,2,9.014536,"1216.jpg","2153.jpg",16,12,1,"y",1,0,689.98,0.68,0.72,10.20554,"High_Value"
"MRI_faces_102",1,2,4,2,3,22.02237,"1052.jpg","1130.jpg",49,44,1,"y",2,0,1089.11,0.28,0.35,23.60579,"Low_Value"
"MRI_faces_102",1,2,4,2,4,26.02242,"2248.jpg","1031.jpg",13,17,0,"b",1,0,687.08,0.72,0.67,27.20577,"High_Value"
"MRI_faces_102",1,2,4,2,5,31.01848,"1192.jpg","1019.jpg",47,43,0,"y",2,1,704.02,0.29,0.35,32.22255,"Low_Value"
"MRI_faces_102",1,2,4,2,6,34.01901,"1192.jpg","1027.jpg",47,48,0,"y",2,1,816.49,0.29,0.28,35.33592,"Low_Value"
"MRI_faces_102",1,2,4,2,7,39.01986,"2015.jpg","2248.jpg",14,13,1,"b",1,1,872.64,0.7,0.72,40.38931,"High_Value"
"MRI_faces_102",1,2,4,2,8,43.02052,"1130.jpg","2149.jpg",44,46,0,"y",2,1,755.98,0.35,0.29,44.27271,"Low_Value"
"MRI_faces_102",1,2,4,2,9,52.02268,"1150.jpg","1127.jpg",53,51,0,"y",2,1,1088.82,0.22,0.24,53.60617,"Low_Value"
"MRI_faces_102",1,2,4,2,10,57.00614,"1173.jpg","1130.jpg",54,44,1,"y",2,0,856.36,0.21,0.35,58.37329,"Low_Value"
"MRI_faces_102",1,2,4,2,11,61.00705,"1114.jpg","2110.jpg",6,56,1,"b",4,1,897.44,0.82,0.16,62.40732,"Sanity"
"MRI_faces_102",1,2,4,2,12,68.00842,"1127.jpg","1013.jpg",51,45,1,"y",2,0,964.08,0.24,0.29,69.47525,"Low_Value"
"MRI_faces_102",1,2,4,2,13,72.02299,"1052.jpg","1192.jpg",49,47,1,"y",2,0,905.52,0.28,0.29,73.42603,"Low_Value"
"MRI_faces_102",1,2,4,2,14,78.00993,"2118.jpg","2110.jpg",5,56,1,"b",4,1,852.57,0.85,0.16,79.37333,"Sanity"
"MRI_faces_102",1,2,4,2,15,83.01084,"1019.jpg","1060.jpg",43,52,1,"y",2,0,1017.64,0.35,0.24,84.52784,"Low_Value"
"MRI_faces_102",1,2,4,2,16,87.01158,"1191.jpg","2010.jpg",18,8,0,"y",1,1,958.93,0.66,0.77,88.47863,"High_Value"
"MRI_faces_102",1,2,4,2,17,90.01208,"2248.jpg","2010.jpg",13,8,0,"y",1,1,925.44,0.72,0.77,91.44587,"High_Value"
"MRI_faces_102",1,2,4,2,18,93.01258,"1060.jpg","1027.jpg",52,48,0,"b",2,0,1134.92,0.24,0.28,94.65681,"Low_Value"
"MRI_faces_102",1,2,4,2,19,97.01322,"1216.jpg","2212.jpg",16,10,1,"y",1,0,598.3,0.68,0.75,98.11362,"High_Value"
"MRI_faces_102",1,2,4,2,20,110.0236,"2015.jpg","2212.jpg",14,10,1,"b",1,1,1133.94,0.7,0.75,111.6493,"High_Value"
"MRI_faces_102",1,2,4,2,21,114.0162,"1035.jpg","2015.jpg",7,14,0,"y",1,1,790.3,0.79,0.7,115.3071,"High_Value"
"MRI_faces_102",1,2,4,2,22,117.0167,"2153.jpg","1262.jpg",12,11,0,"b",1,0,954.75,0.72,0.73,118.4739,"High_Value"
"MRI_faces_102",1,2,4,2,23,122.0237,"2212.jpg","1031.jpg",10,17,0,"b",1,0,865.85,0.75,0.67,123.3847,"High_Value"
"MRI_faces_102",1,2,4,2,24,125.0181,"1150.jpg","1052.jpg",53,49,0,"y",2,1,924.37,0.22,0.28,126.4405,"Low_Value"
"MRI_faces_102",1,2,4,2,25,129.0189,"1216.jpg","2089.jpg",16,15,1,"y",1,0,831.63,0.68,0.68,130.3526,"High_Value"
"MRI_faces_102",1,2,4,2,26,135.0199,"2149.jpg","1150.jpg",46,53,1,"b",2,1,895.68,0.29,0.22,136.4073,"Low_Value"
"MRI_faces_102",1,2,4,2,27,138.0239,"1052.jpg","1060.jpg",49,52,1,"y",2,0,879.58,0.28,0.24,139.3906,"Low_Value"
"MRI_faces_102",1,2,4,2,28,142.0211,"1060.jpg","1173.jpg",52,54,0,"b",2,0,1026.43,0.24,0.21,143.5407,"Low_Value"
"MRI_faces_102",1,2,4,2,29,147.0074,"1013.jpg","1027.jpg",45,48,0,"y",2,1,927.1,0.29,0.28,148.4408,"Low_Value"
"MRI_faces_102",1,2,4,2,30,151.0074,"2181.jpg","2248.jpg",9,13,1,"y",1,0,907.17,0.76,0.72,152.4242,"High_Value"
"MRI_faces_102",1,2,4,2,31,163.0081,"1191.jpg","1262.jpg",18,11,0,"y",1,1,976.4,0.66,0.73,164.4918,"High_Value"
"MRI_faces_102",1,2,4,2,32,169.0093,"1191.jpg","2015.jpg",18,14,0,"y",1,1,729.26,0.66,0.7,170.2429,"High_Value"
"MRI_faces_102",1,2,4,2,33,172.0122,"1262.jpg","2248.jpg",11,13,1,"y",1,0,1039.3,0.73,0.72,173.56,"High_Value"
"MRI_faces_102",1,2,4,2,34,176.0118,"1019.jpg","2045.jpg",43,50,1,"y",2,0,771.66,0.35,0.24,177.2912,"Low_Value"
"MRI_faces_102",1,2,4,2,35,179.0109,"2181.jpg","2212.jpg",9,10,1,"b",1,1,1121.65,0.76,0.75,180.6413,"High_Value"
"MRI_faces_102",1,2,4,2,36,182.0128,"1052.jpg","2045.jpg",49,50,1,"y",2,0,1268.67,0.28,0.24,183.7785,"Low_Value"
"MRI_faces_102",1,2,4,2,37,185.0119,"1035.jpg","2181.jpg",7,9,0,"y",1,1,902.58,0.79,0.76,186.4123,"High_Value"
"MRI_faces_102",1,2,4,2,38,188.0127,"1130.jpg","1127.jpg",44,51,0,"y",2,1,909.75,0.35,0.24,189.4295,"Low_Value"
"MRI_faces_104",1,2,3,1,1,2.015641,"1130.jpg","1246.jpg",13,9,0,"y",1,1,778.65,0.74,0.8,3.300068,"High_Value"
"MRI_faces_104",1,2,3,1,2,9.015734,"1027.jpg","2164.jpg",48,45,1,"b",2,1,586.52,0.28,0.33,10.09935,"Low_Value"
"MRI_faces_104",1,2,3,1,3,22.01589,"1262.jpg","2164.jpg",43,45,1,"y",2,0,697.38,0.37,0.33,23.21604,"Low_Value"
"MRI_faces_104",1,2,3,1,4,26.01594,"1017.jpg","1027.jpg",44,48,0,"y",2,1,692.33,0.37,0.28,27.21259,"Low_Value"
"MRI_faces_104",1,2,3,1,5,31.01602,"2181.jpg","1210.jpg",46,47,1,"b",2,1,668.23,0.3,0.28,32.18296,"Low_Value"
"MRI_faces_104",1,2,3,1,6,34.0161,"1262.jpg","1210.jpg",43,47,1,"y",2,0,969.17,0.37,0.28,35.48291,"Low_Value"
"MRI_faces_104",1,2,3,1,7,39.01619,"2053.jpg","2041.jpg",54,53,1,"y",2,0,749.07,0.19,0.2,40.26634,"Low_Value"
"MRI_faces_104",1,2,3,1,8,43.01621,"2164.jpg","2053.jpg",45,54,0,"y",2,1,892.07,0.33,0.19,44.39968,"Low_Value"
"MRI_faces_104",1,2,3,1,9,52.01681,"2209.jpg","2053.jpg",50,54,0,"y",2,1,646.45,0.22,0.19,53.16719,"Low_Value"
"MRI_faces_104",1,2,3,1,10,57.01774,"1145.jpg","2058.jpg",11,18,1,"y",1,0,780.55,0.75,0.66,58.30137,"High_Value"
"MRI_faces_104",1,2,3,1,11,61.01847,"2063.jpg","1202.jpg",8,15,1,"y",1,0,1088.8,0.8,0.69,62.60211,"High_Value"
"MRI_faces_104",1,2,3,1,12,68.01966,"2015.jpg","2058.jpg",16,18,1,"b",1,1,1063.61,0.67,0.66,69.58342,"High_Value"
"MRI_faces_104",1,2,3,1,13,72.02036,"1019.jpg","2063.jpg",12,8,0,"y",1,1,938.91,0.75,0.8,73.45407,"High_Value"
"MRI_faces_104",1,2,3,1,14,78.02136,"2063.jpg","2058.jpg",8,18,1,"b",1,1,710.93,0.8,0.66,79.22178,"High_Value"
"MRI_faces_104",1,2,3,1,15,83.01675,"2153.jpg","2248.jpg",17,7,1,"b",1,1,1091.52,0.67,0.8,84.60606,"High_Value"
"MRI_faces_104",1,2,3,1,16,87.01687,"1210.jpg","2125.jpg",47,51,0,"b",2,0,999.38,0.28,0.22,88.51703,"Low_Value"
"MRI_faces_104",1,2,3,1,17,90.01693,"1202.jpg","1145.jpg",15,11,0,"b",1,0,1244.34,0.69,0.75,91.7573,"High_Value"
"MRI_faces_104",1,2,3,1,18,93.01686,"1019.jpg","2015.jpg",12,16,0,"y",1,1,987.41,0.75,0.67,94.50768,"High_Value"
"MRI_faces_104",1,2,3,1,19,97.01694,"1031.jpg","1246.jpg",10,9,0,"b",1,0,798.33,0.76,0.8,98.31715,"High_Value"
"MRI_faces_104",1,2,3,1,20,110.0172,"2058.jpg","2110.jpg",18,14,0,"y",1,1,883.11,0.66,0.69,111.4008,"High_Value"
"MRI_faces_104",1,2,3,1,21,114.0172,"1226.jpg","1017.jpg",49,44,1,"b",2,1,734.08,0.24,0.37,115.2507,"Low_Value"
"MRI_faces_104",1,2,3,1,22,117.0172,"1027.jpg","1210.jpg",48,47,1,"y",2,0,850.04,0.28,0.28,118.3674,"Low_Value"
"MRI_faces_104",1,2,3,1,23,122.0173,"2181.jpg","2041.jpg",46,53,1,"b",2,1,1185.94,0.3,0.2,123.7008,"Low_Value"
"MRI_faces_104",1,2,3,1,24,125.0173,"1019.jpg","1246.jpg",12,9,0,"y",1,1,871.94,0.75,0.8,126.3842,"High_Value"
"MRI_faces_104",1,2,3,1,25,129.0174,"2248.jpg","1145.jpg",7,11,0,"b",1,0,1326.89,0.8,0.75,130.8474,"High_Value"
"MRI_faces_104",1,2,3,1,26,135.0174,"2015.jpg","1130.jpg",16,13,1,"b",1,1,877.83,0.67,0.74,136.3983,"High_Value"
"MRI_faces_104",1,2,3,1,27,138.0175,"2041.jpg","1262.jpg",53,43,0,"y",2,1,1219.8,0.2,0.37,139.7343,"Low_Value"
"MRI_faces_104",1,2,3,1,28,142.0176,"1031.jpg","2063.jpg",10,8,0,"y",1,1,916.72,0.76,0.8,143.4343,"High_Value"
"MRI_faces_104",1,2,3,1,29,147.0177,"2125.jpg","2041.jpg",51,53,1,"b",2,1,1099.55,0.22,0.2,148.6178,"Low_Value"
"MRI_faces_104",1,2,3,1,30,151.0178,"1226.jpg","2041.jpg",49,53,1,"x",2,NA,999000,0.24,0.2,153.0179,"Low_Value"
"MRI_faces_104",1,2,3,1,31,163.0196,"1027.jpg","2155.jpg",48,52,1,"y",2,0,578.68,0.28,0.21,164.0865,"Low_Value"
"MRI_faces_104",1,2,3,1,32,169.0206,"2125.jpg","2155.jpg",51,52,1,"b",2,1,383.68,0.22,0.21,169.9042,"Low_Value"
"MRI_faces_104",1,2,3,1,33,172.0223,"2209.jpg","2181.jpg",50,46,0,"y",2,1,503.98,0.22,0.3,173.0214,"Low_Value"
"MRI_faces_104",1,2,3,1,34,176.0216,"1202.jpg","2153.jpg",15,17,0,"b",1,0,660.64,0.69,0.67,177.1721,"High_Value"
"MRI_faces_104",1,2,3,1,35,179.018,"2194.jpg","1255.jpg",56,5,0,"y",4,1,547.24,0.16,0.82,180.0682,"Sanity"
"MRI_faces_104",1,2,3,1,36,182.0203,"1202.jpg","2110.jpg",15,14,0,"b",1,0,626.95,0.69,0.69,183.1398,"High_Value"
"MRI_faces_104",1,2,3,1,37,185.0182,"2149.jpg","1216.jpg",55,6,0,"b",4,0,793.12,0.18,0.81,186.307,"Sanity"
"MRI_faces_104",1,2,3,1,38,188.0209,"2110.jpg","2248.jpg",14,7,1,"b",1,1,653.31,0.69,0.8,189.1743,"High_Value"
"MRI_faces_104",1,2,3,2,1,2.027694,"2053.jpg","2155.jpg",54,52,1,"y",2,0,648.74,0.19,0.21,3.178923,"Low_Value"
"MRI_faces_104",1,2,3,2,2,9.027812,"2155.jpg","2181.jpg",52,46,0,"y",2,1,659.63,0.21,0.3,10.18385,"Low_Value"
"MRI_faces_104",1,2,3,2,3,22.028,"1027.jpg","2041.jpg",48,53,1,"y",2,0,831.44,0.28,0.2,23.36143,"Low_Value"
"MRI_faces_104",1,2,3,2,4,26.02811,"2164.jpg","2125.jpg",45,51,0,"y",2,1,674.31,0.33,0.22,27.20349,"Low_Value"
"MRI_faces_104",1,2,3,2,5,31.02812,"1130.jpg","2110.jpg",13,14,0,"y",1,1,511.32,0.74,0.69,32.03767,"High_Value"
"MRI_faces_104",1,2,3,2,6,34.028,"1246.jpg","1202.jpg",9,15,1,"y",1,0,708.46,0.8,0.69,35.23827,"High_Value"
"MRI_faces_104",1,2,3,2,7,39.02828,"2153.jpg","1031.jpg",17,10,1,"b",1,1,554.16,0.67,0.76,40.07836,"High_Value"
"MRI_faces_104",1,2,3,2,8,43.02835,"2053.jpg","1017.jpg",54,44,1,"b",2,1,615.09,0.19,0.37,44.13978,"Low_Value"
"MRI_faces_104",1,2,3,2,9,52.02809,"1210.jpg","1226.jpg",47,49,0,"b",2,0,728.35,0.28,0.24,53.25806,"Low_Value"
"MRI_faces_104",1,2,3,2,10,57.02851,"1210.jpg","2053.jpg",47,54,0,"b",2,0,614.94,0.28,0.19,58.14231,"Low_Value"
"MRI_faces_104",1,2,3,2,11,61.02857,"2125.jpg","2209.jpg",51,50,1,"y",2,0,795.86,0.22,0.22,62.31205,"Low_Value"
"MRI_faces_104",1,2,3,2,12,68.0287,"2194.jpg","1216.jpg",56,6,0,"b",4,0,1054.74,0.16,0.81,69.57879,"Sanity"
"MRI_faces_104",1,2,3,2,13,72.02877,"2248.jpg","2063.jpg",7,8,0,"y",1,1,757.67,0.8,0.8,73.27877,"High_Value"
"MRI_faces_104",1,2,3,2,14,78.02899,"1255.jpg","2149.jpg",5,55,1,"b",4,1,733.45,0.82,0.18,79.26258,"Sanity"
"MRI_faces_104",1,2,3,2,15,83.02984,"2110.jpg","1031.jpg",14,10,1,"b",1,1,658.6,0.69,0.76,84.18008,"High_Value"
"MRI_faces_104",1,2,3,2,16,87.0289,"2155.jpg","1226.jpg",52,49,0,"y",2,1,704.53,0.21,0.24,88.23085,"Low_Value"
"MRI_faces_104",1,2,3,2,17,90.02891,"2015.jpg","2248.jpg",16,7,1,"b",1,1,664.54,0.67,0.8,91.1814,"High_Value"
"MRI_faces_104",1,2,3,2,18,93.02902,"1019.jpg","2110.jpg",12,14,0,"y",1,1,646.42,0.75,0.69,94.16527,"High_Value"
"MRI_faces_104",1,2,3,2,19,97.02898,"1130.jpg","1145.jpg",13,11,0,"y",1,1,687.48,0.74,0.75,98.21591,"High_Value"
"MRI_faces_104",1,2,3,2,20,110.0292,"1246.jpg","2058.jpg",9,18,1,"y",1,0,812.22,0.8,0.66,111.3349,"High_Value"
"MRI_faces_104",1,2,3,2,21,114.0293,"2164.jpg","1226.jpg",45,49,0,"b",2,0,673.14,0.33,0.24,115.2023,"Low_Value"
"MRI_faces_104",1,2,3,2,22,117.0293,"2058.jpg","2153.jpg",18,17,0,"y",1,1,637.13,0.66,0.67,118.1629,"High_Value"
"MRI_faces_104",1,2,3,2,23,122.0294,"2248.jpg","1246.jpg",7,9,0,"b",1,0,726.06,0.8,0.8,123.2537,"High_Value"
"MRI_faces_104",1,2,3,2,24,125.0294,"2209.jpg","1262.jpg",50,43,0,"b",2,0,582.09,0.22,0.37,126.1041,"Low_Value"
"MRI_faces_104",1,2,3,2,25,129.0295,"2015.jpg","1202.jpg",16,15,1,"b",1,1,620.96,0.67,0.69,130.1463,"High_Value"
"MRI_faces_104",1,2,3,2,26,135.0295,"2015.jpg","1031.jpg",16,10,1,"b",1,1,653.93,0.67,0.76,136.1796,"High_Value"
"MRI_faces_104",1,2,3,2,27,138.0296,"2063.jpg","1130.jpg",8,13,1,"b",1,1,947.85,0.8,0.74,139.4731,"High_Value"
"MRI_faces_104",1,2,3,2,28,142.0296,"2181.jpg","2164.jpg",46,45,1,"y",2,0,796.83,0.3,0.33,143.3239,"Low_Value"
"MRI_faces_104",1,2,3,2,29,147.0297,"1262.jpg","1017.jpg",43,44,1,"b",2,1,1122.74,0.37,0.37,148.6465,"Low_Value"
"MRI_faces_104",1,2,3,2,30,151.0297,"1027.jpg","2209.jpg",48,50,1,"y",2,0,888.72,0.28,0.22,152.4132,"Low_Value"
"MRI_faces_104",1,2,3,2,31,163.0299,"1017.jpg","2181.jpg",44,46,0,"y",2,1,747.52,0.37,0.3,164.2633,"Low_Value"
"MRI_faces_104",1,2,3,2,32,169.0282,"1226.jpg","2209.jpg",49,50,1,"y",2,0,581.24,0.24,0.22,170.0969,"Low_Value"
"MRI_faces_104",1,2,3,2,33,172.0285,"1019.jpg","1145.jpg",12,11,0,"b",1,0,838.91,0.75,0.75,173.3635,"High_Value"
"MRI_faces_104",1,2,3,2,34,176.03,"1031.jpg","1145.jpg",10,11,0,"b",1,0,981.41,0.76,0.75,177.4968,"High_Value"
"MRI_faces_104",1,2,3,2,35,179.0301,"1130.jpg","2153.jpg",13,17,0,"y",1,1,682.33,0.74,0.67,180.1969,"High_Value"
"MRI_faces_104",1,2,3,2,36,182.0303,"1262.jpg","2155.jpg",43,52,1,"y",2,0,903.09,0.37,0.21,183.4307,"Low_Value"
"MRI_faces_104",1,2,3,2,37,185.0308,"1019.jpg","2153.jpg",12,17,0,"b",1,0,973.58,0.75,0.67,186.4981,"High_Value"
"MRI_faces_104",1,2,3,2,38,188.0158,"2125.jpg","1017.jpg",51,44,1,"b",2,1,759.62,0.22,0.37,189.2817,"Low_Value"
"MRI_faces_104",1,2,4,1,1,2.027352,"1202.jpg","1145.jpg",15,11,0,"b",1,0,775.45,0.69,0.75,3.295294,"High_Value"
"MRI_faces_104",1,2,4,1,2,6.02808,"1246.jpg","1031.jpg",9,10,1,"b",1,1,563.73,0.8,0.76,7.090978,"High_Value"
"MRI_faces_104",1,2,4,1,3,9.028566,"2164.jpg","1027.jpg",45,48,0,"y",2,1,340.24,0.33,0.28,9.862212,"Low_Value"
"MRI_faces_104",1,2,4,1,4,14.02944,"2125.jpg","2041.jpg",51,53,1,"b",2,1,376.35,0.22,0.2,14.89644,"Low_Value"
"MRI_faces_104",1,2,4,1,5,17.02992,"1210.jpg","2053.jpg",47,54,0,"b",2,0,778.88,0.28,0.19,18.30783,"Low_Value"
"MRI_faces_104",1,2,4,1,6,20.03046,"1262.jpg","1017.jpg",43,44,1,"b",2,1,727.34,0.37,0.37,21.2579,"Low_Value"
"MRI_faces_104",1,2,4,1,7,34.02465,"2063.jpg","1202.jpg",8,15,1,"b",1,1,682.12,0.8,0.69,35.20815,"High_Value"
"MRI_faces_104",1,2,4,1,8,38.02473,"1262.jpg","2041.jpg",43,53,1,"b",2,1,434.06,0.37,0.2,38.95809,"Low_Value"
"MRI_faces_104",1,2,4,1,9,42.02485,"1027.jpg","1210.jpg",48,47,1,"b",2,1,615.92,0.28,0.28,43.14152,"Low_Value"
"MRI_faces_104",1,2,4,1,10,45.02484,"2181.jpg","2164.jpg",46,45,1,"b",2,1,736.94,0.3,0.33,46.25821,"Low_Value"
"MRI_faces_104",1,2,4,1,11,48.02485,"1130.jpg","1145.jpg",13,11,0,"b",1,0,743.94,0.74,0.75,49.27501,"High_Value"
"MRI_faces_104",1,2,4,1,12,53.02488,"2181.jpg","2209.jpg",46,50,1,"b",2,1,520.93,0.3,0.22,54.04174,"Low_Value"
"MRI_faces_104",1,2,4,1,13,56.02497,"1017.jpg","2125.jpg",44,51,0,"y",2,1,570.82,0.37,0.22,57.09172,"Low_Value"
"MRI_faces_104",1,2,4,1,14,66.02487,"2248.jpg","2063.jpg",7,8,0,"b",1,0,588.92,0.8,0.8,67.10858,"High_Value"
"MRI_faces_104",1,2,4,1,15,72.02692,"1262.jpg","2164.jpg",43,45,1,"b",2,1,714.87,0.37,0.33,73.24197,"Low_Value"
"MRI_faces_104",1,2,4,1,16,75.02524,"2110.jpg","2248.jpg",14,7,1,"y",1,0,510.53,0.69,0.8,76.04053,"High_Value"
"MRI_faces_104",1,2,4,1,17,79.02531,"2015.jpg","2058.jpg",16,18,1,"b",1,1,355.48,0.67,0.66,79.87546,"High_Value"
"MRI_faces_104",1,2,4,1,18,84.02528,"1255.jpg","2149.jpg",5,55,1,"y",4,0,362.49,0.82,0.18,84.89215,"Sanity"
"MRI_faces_104",1,2,4,1,19,91.02622,"1027.jpg","2209.jpg",48,50,1,"b",2,1,560.56,0.28,0.22,92.07672,"Low_Value"
"MRI_faces_104",1,2,4,1,20,96.02706,"1017.jpg","1226.jpg",44,49,0,"y",2,1,470.76,0.37,0.24,96.99397,"Low_Value"
"MRI_faces_104",1,2,4,1,21,99.02762,"1031.jpg","2015.jpg",10,16,0,"b",1,0,525.14,0.76,0.67,100.0445,"High_Value"
"MRI_faces_104",1,2,4,1,22,105.0287,"2209.jpg","1262.jpg",50,43,0,"y",2,1,524.13,0.22,0.37,106.0456,"Low_Value"
"MRI_faces_104",1,2,4,1,23,109.0293,"1031.jpg","2153.jpg",10,17,0,"b",1,0,524.47,0.76,0.67,110.0463,"High_Value"
"MRI_faces_104",1,2,4,1,24,121.0258,"1130.jpg","2063.jpg",13,8,0,"y",1,1,405.01,0.74,0.8,121.9317,"High_Value"
"MRI_faces_104",1,2,4,1,25,124.0259,"1226.jpg","1210.jpg",49,47,1,"y",2,0,477.87,0.24,0.28,124.999,"Low_Value"
"MRI_faces_104",1,2,4,1,26,127.0259,"2153.jpg","1202.jpg",17,15,1,"b",1,1,463.87,0.67,0.69,127.9939,"High_Value"
"MRI_faces_104",1,2,4,1,27,131.0259,"2015.jpg","1130.jpg",16,13,1,"b",1,1,489.88,0.67,0.74,132.0168,"High_Value"
"MRI_faces_104",1,2,4,1,28,137.026,"1262.jpg","2155.jpg",43,52,1,"b",2,1,569.72,0.37,0.21,138.0929,"Low_Value"
"MRI_faces_104",1,2,4,1,29,140.026,"1202.jpg","2110.jpg",15,14,0,"b",1,0,573.74,0.69,0.69,141.1017,"High_Value"
"MRI_faces_104",1,2,4,1,30,149.0261,"2110.jpg","1019.jpg",14,12,1,"b",1,1,586.64,0.69,0.75,150.1096,"High_Value"
"MRI_faces_104",1,2,4,1,31,153.0262,"2058.jpg","1145.jpg",18,11,0,"b",1,0,541.54,0.66,0.75,154.0706,"High_Value"
"MRI_faces_104",1,2,4,1,32,157.0263,"2155.jpg","2125.jpg",52,51,0,"b",2,0,631.53,0.21,0.22,158.1597,"Low_Value"
"MRI_faces_104",1,2,4,1,33,160.0263,"2194.jpg","1216.jpg",56,6,0,"b",4,0,729.52,0.16,0.81,161.2597,"Sanity"
"MRI_faces_104",1,2,4,1,34,163.0263,"1019.jpg","1145.jpg",12,11,0,"y",1,1,399.48,0.75,0.75,163.9265,"High_Value"
"MRI_faces_104",1,2,4,1,35,173.0265,"2053.jpg","1017.jpg",54,44,1,"b",2,1,401.28,0.19,0.37,173.9266,"Low_Value"
"MRI_faces_104",1,2,4,1,36,177.0265,"1019.jpg","2015.jpg",12,16,0,"b",1,0,388.33,0.75,0.67,177.91,"High_Value"
"MRI_faces_104",1,2,4,1,37,185.0266,"2248.jpg","1145.jpg",7,11,0,"b",1,0,441.13,0.8,0.75,185.9601,"High_Value"
"MRI_faces_104",1,2,4,1,38,188.0266,"2164.jpg","2053.jpg",45,54,0,"y",2,1,460.16,0.33,0.19,188.9768,"Low_Value"
"MRI_faces_104",1,2,4,2,1,2.028972,"2153.jpg","2248.jpg",17,7,1,"b",1,1,600.72,0.67,0.8,3.130456,"High_Value"
"MRI_faces_104",1,2,4,2,2,6.029761,"2058.jpg","2153.jpg",18,17,0,"y",1,1,351.92,0.66,0.67,6.880029,"High_Value"
"MRI_faces_104",1,2,4,2,3,9.030345,"1031.jpg","1145.jpg",10,11,0,"b",1,0,452.36,0.76,0.75,9.980678,"High_Value"
"MRI_faces_104",1,2,4,2,4,14.02591,"1246.jpg","2058.jpg",9,18,1,"y",1,0,579.79,0.8,0.66,15.10932,"High_Value"
"MRI_faces_104",1,2,4,2,5,17.026,"1202.jpg","2015.jpg",15,16,0,"b",1,0,477.7,0.69,0.67,18.00932,"High_Value"
"MRI_faces_104",1,2,4,2,6,20.02597,"1027.jpg","2155.jpg",48,52,1,"y",2,0,586.72,0.28,0.21,21.11584,"Low_Value"
"MRI_faces_104",1,2,4,2,7,34.0262,"2125.jpg","2164.jpg",51,45,1,"y",2,0,493.53,0.22,0.33,35.01837,"Low_Value"
"MRI_faces_104",1,2,4,2,8,38.0262,"1017.jpg","1027.jpg",44,48,0,"b",2,0,433.49,0.37,0.28,38.95971,"Low_Value"
"MRI_faces_104",1,2,4,2,9,42.02621,"1019.jpg","2063.jpg",12,8,0,"y",1,1,448.5,0.75,0.8,42.9764,"High_Value"
"MRI_faces_104",1,2,4,2,10,45.02625,"2058.jpg","2063.jpg",18,8,0,"y",1,1,453.44,0.66,0.8,45.97646,"High_Value"
"MRI_faces_104",1,2,4,2,11,48.02642,"1027.jpg","2041.jpg",48,53,1,"b",2,1,573.27,0.28,0.2,49.10416,"Low_Value"
"MRI_faces_104",1,2,4,2,12,53.0264,"2041.jpg","2053.jpg",53,54,0,"b",2,0,686.27,0.2,0.19,54.20986,"Low_Value"
"MRI_faces_104",1,2,4,2,13,56.02649,"1216.jpg","2149.jpg",6,55,1,"y",4,0,659.21,0.81,0.18,57.18894,"Sanity"
"MRI_faces_104",1,2,4,2,14,66.02661,"2125.jpg","2209.jpg",51,50,1,"b",2,1,619.07,0.22,0.22,67.14347,"Low_Value"
"MRI_faces_104",1,2,4,2,15,72.02666,"1210.jpg","1262.jpg",47,43,0,"y",2,1,540.02,0.28,0.37,73.0601,"Low_Value"
"MRI_faces_104",1,2,4,2,16,75.02676,"2181.jpg","1017.jpg",46,44,1,"b",2,1,846.93,0.3,0.37,76.37683,"Low_Value"
"MRI_faces_104",1,2,4,2,17,79.02673,"1255.jpg","2194.jpg",5,56,1,"y",4,0,587.97,0.82,0.16,80.11023,"Sanity"
"MRI_faces_104",1,2,4,2,18,84.02688,"2015.jpg","2248.jpg",16,7,1,"b",1,1,363.81,0.67,0.8,84.89373,"High_Value"
"MRI_faces_104",1,2,4,2,19,91.02802,"1246.jpg","2248.jpg",9,7,1,"y",1,0,575.67,0.8,0.8,92.09501,"High_Value"
"MRI_faces_104",1,2,4,2,20,96.02882,"1019.jpg","1246.jpg",12,9,0,"b",1,0,453.88,0.75,0.8,96.97921,"High_Value"
"MRI_faces_104",1,2,4,2,21,99.02936,"1226.jpg","2041.jpg",49,53,1,"y",2,0,586.34,0.24,0.2,100.1131,"Low_Value"
"MRI_faces_104",1,2,4,2,22,105.0304,"2058.jpg","2110.jpg",18,14,0,"b",1,0,406.27,0.66,0.69,105.9307,"High_Value"
"MRI_faces_104",1,2,4,2,23,109.0311,"2209.jpg","1226.jpg",50,49,0,"y",2,1,541.54,0.22,0.24,110.0647,"Low_Value"
"MRI_faces_104",1,2,4,2,24,121.0273,"2155.jpg","1226.jpg",52,49,0,"b",2,0,514.37,0.21,0.24,122.0441,"Low_Value"
"MRI_faces_104",1,2,4,2,25,124.0275,"1031.jpg","2110.jpg",10,14,0,"b",1,0,449.21,0.76,0.69,124.9776,"High_Value"
"MRI_faces_104",1,2,4,2,26,127.0275,"2153.jpg","1130.jpg",17,13,1,"b",1,1,576.26,0.67,0.74,128.1013,"High_Value"
"MRI_faces_104",1,2,4,2,27,131.0275,"2063.jpg","1031.jpg",8,10,1,"b",1,1,471.17,0.8,0.76,131.9976,"High_Value"
"MRI_faces_104",1,2,4,2,28,137.0276,"2181.jpg","2041.jpg",46,53,1,"b",2,1,467.1,0.3,0.2,137.9948,"Low_Value"
"MRI_faces_104",1,2,4,2,29,140.0276,"2164.jpg","1226.jpg",45,49,0,"b",2,0,484.04,0.33,0.24,141.011,"Low_Value"
"MRI_faces_104",1,2,4,2,30,149.0277,"1202.jpg","1246.jpg",15,9,0,"b",1,0,652.02,0.69,0.8,150.1779,"High_Value"
"MRI_faces_104",1,2,4,2,31,153.0278,"2053.jpg","2209.jpg",54,50,1,"b",2,1,662.93,0.19,0.22,154.1891,"Low_Value"
"MRI_faces_104",1,2,4,2,32,157.0275,"2110.jpg","1130.jpg",14,13,1,"b",1,1,473.21,0.69,0.74,157.9978,"High_Value"
"MRI_faces_104",1,2,4,2,33,160.0279,"2155.jpg","2053.jpg",52,54,0,"b",2,0,524.8,0.21,0.19,161.0446,"Low_Value"
"MRI_faces_104",1,2,4,2,34,163.0278,"2181.jpg","2155.jpg",46,52,1,"b",2,1,534.87,0.3,0.21,164.0614,"Low_Value"
"MRI_faces_104",1,2,4,2,35,173.028,"1019.jpg","2153.jpg",12,17,0,"b",1,0,682.69,0.75,0.67,174.2115,"High_Value"
"MRI_faces_104",1,2,4,2,36,177.0281,"1130.jpg","1246.jpg",13,9,0,"b",1,0,419.62,0.74,0.8,177.9448,"High_Value"
"MRI_faces_104",1,2,4,2,37,185.0282,"1210.jpg","2125.jpg",47,51,0,"b",2,0,406.5,0.28,0.22,185.9283,"Low_Value"
"MRI_faces_104",1,2,4,2,38,188.0282,"2181.jpg","1210.jpg",46,47,1,"b",2,1,439.47,0.3,0.28,188.9618,"Low_Value"
"MRI_faces_105",1,1,3,1,1,2.032806,"1226.jpg","1216.jpg",17,12,0,"b",1,0,1199.55,0.68,0.71,3.72648,"High_Value"
"MRI_faces_105",1,1,3,1,2,6.025277,"2089.jpg","2229.jpg",50,51,1,"b",2,1,1232.1,0.27,0.23,7.758805,"Low_Value"
"MRI_faces_105",1,1,3,1,3,9.025305,"2118.jpg","1127.jpg",8,10,0,"b",1,0,647.05,0.76,0.75,10.17553,"High_Value"
"MRI_faces_105",1,1,3,1,4,14.02547,"2039.jpg","1060.jpg",52,49,1,"y",2,0,1118.93,0.23,0.28,15.64231,"Low_Value"
"MRI_faces_105",1,1,3,1,5,17.02543,"2181.jpg","2058.jpg",6,55,1,"b",4,1,861.91,0.82,0.19,18.39249,"Sanity"
"MRI_faces_105",1,1,3,1,6,20.02553,"2112.jpg","1146.jpg",53,43,1,"y",2,0,1082.83,0.23,0.39,21.60899,"Low_Value"
"MRI_faces_105",1,1,3,1,7,34.02569,"1060.jpg","2024.jpg",49,44,0,"y",2,1,1107.71,0.28,0.38,35.63886,"Low_Value"
"MRI_faces_105",1,1,3,1,8,38.02577,"1127.jpg","1013.jpg",10,14,1,"y",1,0,1095.59,0.75,0.7,39.62606,"High_Value"
"MRI_faces_105",1,1,3,1,9,42.02582,"2112.jpg","2128.jpg",53,48,1,"y",2,0,1088.54,0.23,0.28,43.60941,"Low_Value"
"MRI_faces_105",1,1,3,1,10,45.02591,"1127.jpg","2063.jpg",10,16,1,"y",1,0,1000.46,0.75,0.69,46.526,"High_Value"
"MRI_faces_105",1,1,3,1,11,48.02591,"1019.jpg","2229.jpg",47,51,1,"b",2,1,948.47,0.28,0.23,49.4761,"Low_Value"
"MRI_faces_105",1,1,3,1,12,53.02607,"2229.jpg","1017.jpg",51,45,0,"y",2,1,1247.3,0.23,0.36,54.77623,"Low_Value"
"MRI_faces_105",1,1,3,1,13,56.02606,"2118.jpg","2218.jpg",8,15,0,"b",1,0,965.32,0.76,0.7,57.49292,"High_Value"
"MRI_faces_105",1,1,3,1,14,66.02741,"2112.jpg","2229.jpg",53,51,1,"y",2,0,1411.96,0.23,0.23,67.94457,"Low_Value"
"MRI_faces_105",1,1,3,1,15,72.02844,"2039.jpg","1146.jpg",52,43,1,"y",2,0,876.91,0.23,0.39,73.40979,"Low_Value"
"MRI_faces_105",1,1,3,1,16,75.02899,"1262.jpg","2053.jpg",9,7,0,"y",1,1,1047.38,0.75,0.78,76.57936,"High_Value"
"MRI_faces_105",1,1,3,1,17,79.02974,"1127.jpg","1114.jpg",10,11,1,"b",1,1,1389.62,0.75,0.73,80.91346,"High_Value"
"MRI_faces_105",1,1,3,1,18,84.03055,"1060.jpg","2112.jpg",49,53,0,"b",2,0,1131.79,0.28,0.23,85.65988,"Low_Value"
"MRI_faces_105",1,1,3,1,19,91.03175,"1146.jpg","2089.jpg",43,50,0,"b",2,0,725.61,0.39,0.27,92.24902,"Low_Value"
"MRI_faces_105",1,1,3,1,20,96.02658,"2153.jpg","1017.jpg",46,45,0,"y",2,1,1002.79,0.3,0.36,97.53306,"Low_Value"
"MRI_faces_105",1,1,3,1,21,99.0267,"1262.jpg","1216.jpg",9,12,0,"y",1,1,1220.69,0.75,0.71,100.7504,"High_Value"
"MRI_faces_105",1,1,3,1,22,105.0267,"1216.jpg","1114.jpg",12,11,1,"b",1,1,1051.65,0.71,0.73,106.5846,"High_Value"
"MRI_faces_105",1,1,3,1,23,109.0268,"2094.jpg","1013.jpg",13,14,1,"b",1,1,969.52,0.71,0.7,110.5021,"High_Value"
"MRI_faces_105",1,1,3,1,24,121.027,"2024.jpg","2153.jpg",44,46,1,"b",2,1,944.33,0.38,0.3,122.4771,"Low_Value"
"MRI_faces_105",1,1,3,1,25,124.0271,"2063.jpg","2218.jpg",16,15,0,"b",1,0,1210.29,0.69,0.7,125.738,"High_Value"
"MRI_faces_105",1,1,3,1,26,127.0271,"2094.jpg","2118.jpg",13,8,1,"b",1,1,1061.28,0.71,0.76,128.5939,"High_Value"
"MRI_faces_105",1,1,3,1,27,131.0271,"2058.jpg","1192.jpg",55,5,0,"y",4,1,1213.25,0.19,0.82,132.744,"Sanity"
"MRI_faces_105",1,1,3,1,28,137.0272,"2024.jpg","2128.jpg",44,48,1,"y",2,0,847.11,0.38,0.28,138.3774,"Low_Value"
"MRI_faces_105",1,1,3,1,29,140.0272,"1114.jpg","2240.jpg",11,18,0,"x",1,NA,999000,0.73,0.67,142.0276,"High_Value"
"MRI_faces_105",1,1,3,1,30,149.0274,"2089.jpg","1060.jpg",50,49,1,"b",2,1,723.01,0.27,0.28,150.2441,"Low_Value"
"MRI_faces_105",1,1,3,1,31,153.0274,"1204.jpg","1017.jpg",54,45,0,"b",2,0,870.01,0.2,0.36,154.3943,"Low_Value"
"MRI_faces_105",1,1,3,1,32,157.0274,"2118.jpg","2053.jpg",8,7,0,"y",1,1,1138.91,0.76,0.78,158.6609,"High_Value"
"MRI_faces_105",1,1,3,1,33,160.0275,"1204.jpg","2112.jpg",54,53,0,"b",2,0,855.84,0.2,0.23,161.3776,"Low_Value"
"MRI_faces_105",1,1,3,1,34,163.0277,"1114.jpg","2053.jpg",11,7,0,"y",1,1,660.69,0.73,0.78,164.1778,"High_Value"
"MRI_faces_105",1,1,3,1,35,173.0295,"2153.jpg","2039.jpg",46,52,0,"b",2,0,937.9,0.3,0.23,174.4632,"Low_Value"
"MRI_faces_105",1,1,3,1,36,177.0301,"2063.jpg","2094.jpg",16,13,0,"y",1,1,786.27,0.69,0.71,178.3139,"High_Value"
"MRI_faces_105",1,1,3,1,37,185.0315,"1216.jpg","2063.jpg",12,16,1,"b",1,1,912.84,0.71,0.69,186.4446,"High_Value"
"MRI_faces_105",1,1,3,1,38,188.032,"2094.jpg","1262.jpg",13,9,1,"b",1,1,878.4,0.71,0.75,189.3991,"High_Value"
"MRI_faces_105",1,1,3,2,1,2.013315,"1192.jpg","2045.jpg",5,56,1,"b",4,1,1049.9,0.82,0.18,3.565011,"Sanity"
"MRI_faces_105",1,1,3,2,2,6.014067,"2128.jpg","2089.jpg",48,50,0,"b",2,0,706.13,0.28,0.27,7.231022,"Low_Value"
"MRI_faces_105",1,1,3,2,3,9.014556,"1204.jpg","2024.jpg",54,44,0,"y",2,1,992.66,0.2,0.38,10.51512,"Low_Value"
"MRI_faces_105",1,1,3,2,4,14.01529,"1127.jpg","1262.jpg",10,9,1,"y",1,0,1002.91,0.75,0.75,15.5158,"High_Value"
"MRI_faces_105",1,1,3,2,5,17.01594,"2128.jpg","1017.jpg",48,45,0,"b",2,0,633.27,0.28,0.36,18.14961,"Low_Value"
"MRI_faces_105",1,1,3,2,6,20.01645,"1060.jpg","1017.jpg",49,45,0,"y",2,1,962.74,0.28,0.36,21.48351,"Low_Value"
"MRI_faces_105",1,1,3,2,7,34.019,"1060.jpg","1019.jpg",49,47,0,"b",2,0,784.22,0.28,0.28,35.30264,"Low_Value"
"MRI_faces_105",1,1,3,2,8,38.01963,"2240.jpg","1013.jpg",18,14,1,"b",1,1,984.58,0.67,0.7,39.5034,"High_Value"
"MRI_faces_105",1,1,3,2,9,42.02034,"2053.jpg","1226.jpg",7,17,1,"b",1,1,632.86,0.78,0.68,43.15396,"High_Value"
"MRI_faces_105",1,1,3,2,10,45.02085,"1013.jpg","2053.jpg",14,7,0,"y",1,1,747.38,0.7,0.78,46.2712,"High_Value"
"MRI_faces_105",1,1,3,2,11,48.0214,"1017.jpg","1146.jpg",45,43,1,"b",2,1,813.76,0.36,0.39,49.33836,"Low_Value"
"MRI_faces_105",1,1,3,2,12,53.0223,"1262.jpg","2240.jpg",9,18,0,"y",1,1,978.91,0.75,0.67,54.49738,"High_Value"
"MRI_faces_105",1,1,3,2,13,56.02276,"1146.jpg","1019.jpg",43,47,0,"b",2,0,855.44,0.39,0.28,57.38069,"Low_Value"
"MRI_faces_105",1,1,3,2,14,66.02448,"2053.jpg","2063.jpg",7,16,1,"b",1,1,562.72,0.78,0.69,67.08083,"High_Value"
"MRI_faces_105",1,1,3,2,15,72.02557,"1216.jpg","1013.jpg",12,14,1,"y",1,0,828.63,0.71,0.7,73.34765,"High_Value"
"MRI_faces_105",1,1,3,2,16,75.01416,"1226.jpg","2240.jpg",17,18,0,"b",1,0,1002.04,0.68,0.67,76.52648,"High_Value"
"MRI_faces_105",1,1,3,2,17,79.01424,"2089.jpg","1204.jpg",50,54,1,"b",2,1,1048.96,0.27,0.2,80.56441,"Low_Value"
"MRI_faces_105",1,1,3,2,18,84.01433,"1114.jpg","2094.jpg",11,13,0,"y",1,1,707.87,0.73,0.71,85.23114,"High_Value"
"MRI_faces_105",1,1,3,2,19,91.0144,"2039.jpg","2229.jpg",52,51,1,"b",2,1,880.8,0.23,0.23,92.39797,"Low_Value"
"MRI_faces_105",1,1,3,2,20,96.01447,"2112.jpg","2153.jpg",53,46,1,"y",2,0,888.72,0.23,0.3,97.41342,"Low_Value"
"MRI_faces_105",1,1,3,2,21,99.01454,"2024.jpg","2229.jpg",44,51,1,"b",2,1,825.66,0.38,0.23,100.348,"Low_Value"
"MRI_faces_105",1,1,3,2,22,105.0147,"2153.jpg","1019.jpg",46,47,0,"y",2,1,572.52,0.3,0.28,106.098,"Low_Value"
"MRI_faces_105",1,1,3,2,23,109.0153,"2118.jpg","1216.jpg",8,12,0,"b",1,0,618.89,0.76,0.71,110.1324,"High_Value"
"MRI_faces_105",1,1,3,2,24,121.0175,"1262.jpg","2218.jpg",9,15,0,"b",1,0,761.68,0.75,0.7,122.2844,"High_Value"
"MRI_faces_105",1,1,3,2,25,124.018,"1146.jpg","2024.jpg",43,44,0,"b",2,0,902.17,0.39,0.38,125.4183,"Low_Value"
"MRI_faces_105",1,1,3,2,26,127.0185,"2039.jpg","1204.jpg",52,54,1,"b",2,1,852.7,0.23,0.2,128.3688,"Low_Value"
"MRI_faces_105",1,1,3,2,27,131.0192,"2063.jpg","2240.jpg",16,18,0,"b",1,0,1020.01,0.69,0.67,132.5362,"High_Value"
"MRI_faces_105",1,1,3,2,28,137.0203,"2218.jpg","1226.jpg",15,17,1,"y",1,0,706.96,0.7,0.68,138.2318,"High_Value"
"MRI_faces_105",1,1,3,2,29,140.0207,"1127.jpg","1226.jpg",10,17,1,"y",1,0,576.47,0.75,0.68,141.0987,"High_Value"
"MRI_faces_105",1,1,3,2,30,149.0223,"2153.jpg","2089.jpg",46,50,0,"b",2,0,836.87,0.3,0.27,150.356,"Low_Value"
"MRI_faces_105",1,1,3,2,31,153.0231,"2240.jpg","2118.jpg",18,8,1,"b",1,1,776.17,0.67,0.76,154.2987,"High_Value"
"MRI_faces_105",1,1,3,2,32,157.0237,"1019.jpg","2128.jpg",47,48,1,"y",2,0,838.55,0.28,0.28,158.3574,"Low_Value"
"MRI_faces_105",1,1,3,2,33,160.0242,"1013.jpg","2218.jpg",14,15,0,"b",1,0,888.97,0.7,0.7,161.408,"High_Value"
"MRI_faces_105",1,1,3,2,34,163.0248,"2128.jpg","2039.jpg",48,52,0,"b",2,0,759.38,0.28,0.23,164.2822,"Low_Value"
"MRI_faces_105",1,1,3,2,35,173.0155,"2218.jpg","1114.jpg",15,11,1,"y",1,0,726.66,0.7,0.73,174.2489,"High_Value"
"MRI_faces_105",1,1,3,2,36,177.0155,"1019.jpg","1204.jpg",47,54,1,"b",2,1,739.73,0.28,0.2,178.2609,"Low_Value"
"MRI_faces_105",1,1,3,2,37,185.0157,"2045.jpg","2181.jpg",56,6,0,"y",4,1,803.51,0.18,0.82,186.3289,"Sanity"
"MRI_faces_105",1,1,3,2,38,188.0157,"2094.jpg","1226.jpg",13,17,1,"b",1,1,657.46,0.71,0.68,189.1794,"High_Value"
"MRI_faces_105",1,1,4,1,1,2.016141,"2063.jpg","2053.jpg",16,7,0,"y",1,1,770.3,0.69,0.78,3.282401,"High_Value"
"MRI_faces_105",1,1,4,1,2,6.016785,"2218.jpg","1226.jpg",15,17,1,"y",1,0,734.68,0.7,0.68,7.24895,"High_Value"
"MRI_faces_105",1,1,4,1,3,13.0165,"2053.jpg","2118.jpg",7,8,1,"b",1,1,579.93,0.78,0.76,14.10013,"High_Value"
"MRI_faces_105",1,1,4,1,4,16.017,"2112.jpg","2128.jpg",53,48,1,"y",2,0,782.47,0.23,0.28,17.30078,"Low_Value"
"MRI_faces_105",1,1,4,1,5,21.0179,"2045.jpg","2181.jpg",56,6,0,"y",4,1,734.53,0.18,0.82,22.25163,"Sanity"
"MRI_faces_105",1,1,4,1,6,31.01967,"2218.jpg","1013.jpg",15,14,1,"y",1,0,709.76,0.7,0.7,32.23095,"High_Value"
"MRI_faces_105",1,1,4,1,7,34.02019,"2063.jpg","1127.jpg",16,10,0,"y",1,1,1224.24,0.69,0.75,35.74776,"High_Value"
"MRI_faces_105",1,1,4,1,8,37.02081,"2128.jpg","1017.jpg",48,45,0,"b",2,0,780.62,0.28,0.36,38.30442,"Low_Value"
"MRI_faces_105",1,1,4,1,9,46.02213,"2153.jpg","1017.jpg",46,45,0,"b",2,0,825.31,0.3,0.36,47.34783,"Low_Value"
"MRI_faces_105",1,1,4,1,10,49.02286,"2240.jpg","2063.jpg",18,16,1,"b",1,1,1185.57,0.67,0.69,50.7067,"High_Value"
"MRI_faces_105",1,1,4,1,11,59.0246,"1192.jpg","2045.jpg",5,56,1,"b",4,1,854.83,0.82,0.18,60.38139,"Sanity"
"MRI_faces_105",1,1,4,1,12,64.02546,"1013.jpg","1216.jpg",14,12,0,"b",1,0,875.02,0.7,0.71,65.39819,"High_Value"
"MRI_faces_105",1,1,4,1,13,69.01474,"1216.jpg","2063.jpg",12,16,1,"b",1,1,823.7,0.71,0.69,70.34821,"High_Value"
"MRI_faces_105",1,1,4,1,14,77.01489,"2063.jpg","2094.jpg",16,13,0,"y",1,1,656.56,0.69,0.71,78.18169,"High_Value"
"MRI_faces_105",1,1,4,1,15,84.015,"2218.jpg","1114.jpg",15,11,1,"b",1,1,875.43,0.7,0.73,85.39846,"High_Value"
"MRI_faces_105",1,1,4,1,16,88.01509,"1216.jpg","1226.jpg",12,17,1,"y",1,0,970.33,0.71,0.68,89.48179,"High_Value"
"MRI_faces_105",1,1,4,1,17,91.01508,"1013.jpg","2094.jpg",14,13,0,"y",1,1,603.33,0.7,0.71,92.1152,"High_Value"
"MRI_faces_105",1,1,4,1,18,96.01516,"1146.jpg","2024.jpg",43,44,0,"b",2,0,802.29,0.39,0.38,97.31525,"Low_Value"
"MRI_faces_105",1,1,4,1,19,99.01513,"1146.jpg","2112.jpg",43,53,0,"b",2,0,926.31,0.39,0.23,100.4487,"Low_Value"
"MRI_faces_105",1,1,4,1,20,107.0164,"1060.jpg","1017.jpg",49,45,0,"b",2,0,950.07,0.28,0.36,108.4667,"Low_Value"
"MRI_faces_105",1,1,4,1,21,113.0175,"2112.jpg","1204.jpg",53,54,1,"b",2,1,869.93,0.23,0.2,114.3845,"Low_Value"
"MRI_faces_105",1,1,4,1,22,118.0183,"1216.jpg","1114.jpg",12,11,1,"b",1,1,972.14,0.71,0.73,119.4989,"High_Value"
"MRI_faces_105",1,1,4,1,23,123.0191,"1204.jpg","1019.jpg",54,47,0,"y",2,1,1047.31,0.2,0.28,124.5695,"Low_Value"
"MRI_faces_105",1,1,4,1,24,126.0196,"1017.jpg","2229.jpg",45,51,1,"b",2,1,895.83,0.36,0.23,127.42,"Low_Value"
"MRI_faces_105",1,1,4,1,25,140.0221,"1127.jpg","1013.jpg",10,14,1,"b",1,1,914.34,0.75,0.7,141.4391,"High_Value"
"MRI_faces_105",1,1,4,1,26,143.0226,"2128.jpg","2039.jpg",48,52,0,"b",2,0,603.82,0.28,0.23,144.1229,"Low_Value"
"MRI_faces_105",1,1,4,1,27,147.0233,"2024.jpg","1060.jpg",44,49,1,"b",2,1,1063.13,0.38,0.28,148.5827,"Low_Value"
"MRI_faces_105",1,1,4,1,28,151.0241,"2240.jpg","1114.jpg",18,11,1,"b",1,1,1009.34,0.67,0.73,152.5327,"High_Value"
"MRI_faces_105",1,1,4,1,29,154.0245,"2089.jpg","2229.jpg",50,51,1,"y",2,0,1159.93,0.27,0.23,155.6827,"Low_Value"
"MRI_faces_105",1,1,4,1,30,157.0251,"1060.jpg","2039.jpg",49,52,0,"y",2,1,1341.33,0.28,0.23,158.8661,"Low_Value"
"MRI_faces_105",1,1,4,1,31,163.026,"2053.jpg","1262.jpg",7,9,1,"b",1,1,613.41,0.78,0.75,164.1329,"High_Value"
"MRI_faces_105",1,1,4,1,32,169.0161,"1146.jpg","2039.jpg",43,52,0,"b",2,0,707.35,0.39,0.23,170.2329,"Low_Value"
"MRI_faces_105",1,1,4,1,33,172.0161,"2112.jpg","2229.jpg",53,51,1,"y",2,0,901.34,0.23,0.23,173.4281,"Low_Value"
"MRI_faces_105",1,1,4,1,34,175.0162,"1060.jpg","2112.jpg",49,53,0,"b",2,0,1041.26,0.28,0.23,176.5664,"Low_Value"
"MRI_faces_105",1,1,4,1,35,179.0163,"1146.jpg","2089.jpg",43,50,0,"b",2,0,642.14,0.39,0.27,180.1664,"Low_Value"
"MRI_faces_105",1,1,4,1,36,182.0164,"1114.jpg","2094.jpg",11,13,0,"y",1,1,640.11,0.73,0.71,183.1664,"High_Value"
"MRI_faces_105",1,1,4,1,37,185.0164,"2153.jpg","2039.jpg",46,52,0,"b",2,0,911.01,0.3,0.23,186.4332,"Low_Value"
"MRI_faces_105",1,1,4,1,38,188.0165,"2218.jpg","2063.jpg",15,16,1,"y",1,0,1162.97,0.7,0.69,189.6831,"High_Value"
"MRI_faces_105",1,1,4,2,1,2.021648,"2089.jpg","2153.jpg",50,46,1,"y",2,0,774.54,0.27,0.3,3.289341,"Low_Value"
"MRI_faces_105",1,1,4,2,2,6.022362,"2058.jpg","1192.jpg",55,5,0,"y",4,1,1030.85,0.19,0.82,7.549294,"Sanity"
"MRI_faces_105",1,1,4,2,3,9.022932,"1204.jpg","1017.jpg",54,45,0,"y",2,1,1104.28,0.2,0.36,10.62324,"Low_Value"
"MRI_faces_105",1,1,4,2,4,14.016,"2094.jpg","1262.jpg",13,9,1,"b",1,1,653.24,0.71,0.75,15.17407,"High_Value"
"MRI_faces_105",1,1,4,2,5,17.01601,"2094.jpg","1226.jpg",13,17,1,"b",1,1,654.21,0.71,0.68,18.17457,"High_Value"
"MRI_faces_105",1,1,4,2,6,20.01601,"1013.jpg","2240.jpg",14,18,0,"y",1,1,1043.2,0.7,0.67,21.56619,"High_Value"
"MRI_faces_105",1,1,4,2,7,34.01622,"1262.jpg","2240.jpg",9,18,0,"b",1,0,902.97,0.75,0.67,35.41634,"High_Value"
"MRI_faces_105",1,1,4,2,8,38.01627,"1127.jpg","1262.jpg",10,9,1,"y",1,0,649.93,0.75,0.75,39.16647,"High_Value"
"MRI_faces_105",1,1,4,2,9,42.0164,"1019.jpg","1146.jpg",47,43,1,"y",2,0,784.8,0.28,0.39,43.2998,"Low_Value"
"MRI_faces_105",1,1,4,2,10,45.01645,"2094.jpg","2118.jpg",13,8,1,"b",1,1,596.74,0.71,0.76,46.11654,"High_Value"
"MRI_faces_105",1,1,4,2,11,48.0165,"2118.jpg","1127.jpg",8,10,0,"b",1,0,595.71,0.76,0.75,49.1166,"High_Value"
"MRI_faces_105",1,1,4,2,12,53.01649,"2089.jpg","2128.jpg",50,48,1,"y",2,0,787.71,0.27,0.28,54.29996,"Low_Value"
"MRI_faces_105",1,1,4,2,13,56.01656,"1226.jpg","2240.jpg",17,18,0,"b",1,0,1038.65,0.68,0.67,57.55003,"High_Value"
"MRI_faces_105",1,1,4,2,14,66.01667,"2181.jpg","2058.jpg",6,55,1,"b",4,1,843.52,0.82,0.19,67.36653,"Sanity"
"MRI_faces_105",1,1,4,2,15,72.01727,"2024.jpg","2229.jpg",44,51,1,"b",2,1,970.94,0.38,0.23,73.48434,"Low_Value"
"MRI_faces_105",1,1,4,2,16,75.01779,"2118.jpg","2240.jpg",8,18,0,"b",1,0,1106.39,0.76,0.67,76.61816,"High_Value"
"MRI_faces_105",1,1,4,2,17,79.01847,"1127.jpg","1226.jpg",10,17,1,"y",1,0,739.74,0.75,0.68,80.25215,"High_Value"
"MRI_faces_105",1,1,4,2,18,84.01977,"1204.jpg","2024.jpg",54,44,0,"y",2,1,877.45,0.2,0.38,85.40059,"Low_Value"
"MRI_faces_105",1,1,4,2,19,91.02052,"1262.jpg","2218.jpg",9,15,0,"b",1,0,610.68,0.75,0.7,92.12086,"High_Value"
"MRI_faces_105",1,1,4,2,20,96.02146,"1204.jpg","2089.jpg",54,50,0,"y",2,1,837.73,0.2,0.27,97.35509,"Low_Value"
"MRI_faces_105",1,1,4,2,21,99.02191,"2153.jpg","1019.jpg",46,47,0,"b",2,0,572.31,0.3,0.28,100.0887,"Low_Value"
"MRI_faces_105",1,1,4,2,22,105.023,"1019.jpg","2128.jpg",47,48,1,"y",2,0,799.19,0.28,0.28,106.3173,"Low_Value"
"MRI_faces_105",1,1,4,2,23,109.0172,"2118.jpg","1216.jpg",8,12,0,"b",1,0,692.95,0.76,0.71,110.2075,"High_Value"
"MRI_faces_105",1,1,4,2,24,121.0174,"2118.jpg","2218.jpg",8,15,0,"b",1,0,578.79,0.76,0.7,122.1007,"High_Value"
"MRI_faces_105",1,1,4,2,25,124.0175,"1114.jpg","1127.jpg",11,10,0,"b",1,0,961.67,0.73,0.75,125.4843,"High_Value"
"MRI_faces_105",1,1,4,2,26,127.0175,"1019.jpg","1060.jpg",47,49,1,"b",2,1,961.73,0.28,0.28,128.4844,"Low_Value"
"MRI_faces_105",1,1,4,2,27,131.0175,"2229.jpg","1019.jpg",51,47,0,"y",2,1,861.66,0.23,0.28,132.3844,"Low_Value"
"MRI_faces_105",1,1,4,2,28,137.0177,"2024.jpg","2153.jpg",44,46,1,"y",2,0,801.52,0.38,0.3,138.3179,"Low_Value"
"MRI_faces_105",1,1,4,2,29,140.0177,"1216.jpg","1262.jpg",12,9,1,"y",1,0,863.49,0.71,0.75,141.3845,"High_Value"
"MRI_faces_105",1,1,4,2,30,149.0178,"1017.jpg","1146.jpg",45,43,1,"b",2,1,987.37,0.36,0.39,150.5014,"Low_Value"
"MRI_faces_105",1,1,4,2,31,153.0178,"2089.jpg","1060.jpg",50,49,1,"b",2,1,946.35,0.27,0.28,154.4681,"Low_Value"
"MRI_faces_105",1,1,4,2,32,157.018,"1114.jpg","2053.jpg",11,7,0,"y",1,1,804.25,0.73,0.78,158.3181,"High_Value"
"MRI_faces_105",1,1,4,2,33,160.018,"2229.jpg","2039.jpg",51,52,0,"b",2,0,947.17,0.23,0.23,161.4682,"Low_Value"
"MRI_faces_105",1,1,4,2,34,163.0181,"2153.jpg","2112.jpg",46,53,0,"b",2,0,852.14,0.3,0.23,164.3681,"Low_Value"
"MRI_faces_105",1,1,4,2,35,173.0181,"2039.jpg","1204.jpg",52,54,1,"b",2,1,986.07,0.23,0.2,174.5019,"Low_Value"
"MRI_faces_105",1,1,4,2,36,177.0188,"2053.jpg","1226.jpg",7,17,1,"b",1,1,684.41,0.78,0.68,178.2025,"High_Value"
"MRI_faces_105",1,1,4,2,37,185.0203,"2128.jpg","2024.jpg",48,44,0,"b",2,0,770.92,0.28,0.38,186.2873,"Low_Value"
"MRI_faces_105",1,1,4,2,38,188.0206,"2053.jpg","1013.jpg",7,14,1,"b",1,1,582.61,0.78,0.7,189.1044,"High_Value"
"MRI_faces_108",1,2,3,1,1,2.028171,"1073.jpg","1007.jpg",15,16,0,"b",1,0,1410.62,0.62,0.62,3.937618,"High_Value"
"MRI_faces_108",1,2,3,1,2,5.028261,"1007.jpg","2229.jpg",16,13,1,"y",1,0,1389.54,0.62,0.69,6.911747,"High_Value"
"MRI_faces_108",1,2,3,1,3,8.028368,"2118.jpg","1013.jpg",14,7,1,"y",1,0,1447.43,0.63,0.76,9.971037,"High_Value"
"MRI_faces_108",1,2,3,1,4,13.02837,"1027.jpg","1013.jpg",11,7,1,"y",1,0,1438.43,0.72,0.76,14.96202,"High_Value"
"MRI_faces_108",1,2,3,1,5,18.0284,"2053.jpg","1183.jpg",51,52,1,"b",2,1,1049.41,0.3,0.3,19.57264,"Low_Value"
"MRI_faces_108",1,2,3,1,6,25.0285,"2153.jpg","1007.jpg",10,16,0,"x",1,NA,999000,0.72,0.62,27.02871,"High_Value"
"MRI_faces_108",1,2,3,1,7,29.02862,"1035.jpg","2063.jpg",55,5,0,"y",4,1,834.18,0.24,0.81,30.36207,"Sanity"
"MRI_faces_108",1,2,3,1,8,32.02861,"1246.jpg","1216.jpg",45,43,0,"y",2,1,974.21,0.34,0.37,33.49547,"Low_Value"
"MRI_faces_108",1,2,3,1,9,39.02872,"1017.jpg","1019.jpg",18,9,0,"b",1,0,1199.06,0.6,0.73,40.72638,"High_Value"
"MRI_faces_108",1,2,3,1,10,43.0267,"2053.jpg","2128.jpg",51,44,1,"y",2,0,1213.09,0.3,0.34,44.72903,"Low_Value"
"MRI_faces_108",1,2,3,1,11,46.02889,"2125.jpg","2094.jpg",8,12,1,"y",1,0,1248.86,0.74,0.71,47.77766,"High_Value"
"MRI_faces_108",1,2,3,1,12,50.02891,"1007.jpg","1017.jpg",16,18,1,"y",1,0,1144.9,0.62,0.6,51.6624,"High_Value"
"MRI_faces_108",1,2,3,1,13,54.02899,"1246.jpg","2149.jpg",45,54,0,"y",2,1,1177.81,0.34,0.26,55.69582,"Low_Value"
"MRI_faces_108",1,2,3,1,14,59.01251,"1216.jpg","1146.jpg",43,50,1,"b",2,1,1430.29,0.37,0.31,60.9467,"Low_Value"
"MRI_faces_108",1,2,3,1,15,63.0133,"2118.jpg","1017.jpg",14,18,1,"x",1,NA,999000,0.63,0.6,65.01398,"High_Value"
"MRI_faces_108",1,2,3,1,16,67.01431,"1183.jpg","1216.jpg",52,43,0,"b",2,0,1155.48,0.3,0.37,68.68129,"Low_Value"
"MRI_faces_108",1,2,3,1,17,70.01475,"2058.jpg","1216.jpg",53,43,0,"y",2,1,914.06,0.29,0.37,71.4318,"Low_Value"
"MRI_faces_108",1,2,3,1,18,80.01653,"2063.jpg","1052.jpg",5,56,1,"y",4,0,1210.28,0.81,0.24,81.73357,"Sanity"
"MRI_faces_108",1,2,3,1,19,84.01722,"2058.jpg","2043.jpg",53,48,0,"y",2,1,1125.59,0.29,0.32,85.65091,"Low_Value"
"MRI_faces_108",1,2,3,1,20,87.01775,"1013.jpg","2125.jpg",7,8,0,"y",1,1,1081.05,0.76,0.74,88.6015,"High_Value"
"MRI_faces_108",1,2,3,1,21,90.01828,"2155.jpg","1173.jpg",47,46,0,"b",2,0,869.53,0.34,0.34,91.39632,"Low_Value"
"MRI_faces_108",1,2,3,1,22,94.01893,"1027.jpg","1073.jpg",11,15,1,"y",1,0,1336.86,0.72,0.62,95.86302,"High_Value"
"MRI_faces_108",1,2,3,1,23,100.0201,"2128.jpg","2043.jpg",44,48,0,"b",2,0,1175.71,0.34,0.32,101.7038,"Low_Value"
"MRI_faces_108",1,2,3,1,24,103.0205,"2094.jpg","1027.jpg",12,11,0,"b",1,0,851.33,0.71,0.72,104.38,"High_Value"
"MRI_faces_108",1,2,3,1,25,106.0211,"2053.jpg","2155.jpg",51,47,1,"y",2,0,910.71,0.3,0.34,107.4381,"Low_Value"
"MRI_faces_108",1,2,3,1,26,110.0218,"2128.jpg","2194.jpg",44,49,0,"y",2,1,959.01,0.34,0.31,111.4799,"Low_Value"
"MRI_faces_108",1,2,3,1,27,113.0223,"2229.jpg","1027.jpg",13,11,0,"b",1,0,1067.52,0.69,0.72,114.5894,"High_Value"
"MRI_faces_108",1,2,3,1,28,116.0228,"2194.jpg","1246.jpg",49,45,1,"b",2,1,1154.01,0.31,0.34,117.68,"Low_Value"
"MRI_faces_108",1,2,3,1,29,130.0252,"2094.jpg","1019.jpg",12,9,0,"b",1,0,1074.56,0.71,0.73,131.5968,"High_Value"
"MRI_faces_108",1,2,3,1,30,140.027,"2118.jpg","1073.jpg",14,15,1,"y",1,0,1306.81,0.63,0.62,141.8304,"High_Value"
"MRI_faces_108",1,2,3,1,31,146.028,"2053.jpg","1246.jpg",51,45,1,"y",2,0,1083.8,0.3,0.34,147.6118,"Low_Value"
"MRI_faces_108",1,2,3,1,32,150.0287,"2118.jpg","2094.jpg",14,12,1,"y",1,0,878.09,0.63,0.71,151.3971,"High_Value"
"MRI_faces_108",1,2,3,1,33,156.0134,"1246.jpg","1173.jpg",45,46,0,"y",2,1,1233.39,0.34,0.34,157.7469,"Low_Value"
"MRI_faces_108",1,2,3,1,34,160.0136,"2043.jpg","1246.jpg",48,45,1,"b",2,1,1056.19,0.32,0.34,161.5809,"Low_Value"
"MRI_faces_108",1,2,3,1,35,166.0149,"2153.jpg","1114.jpg",10,17,0,"b",1,0,858.88,0.72,0.62,167.3818,"High_Value"
"MRI_faces_108",1,2,3,1,36,178.0169,"1114.jpg","1017.jpg",17,18,1,"y",1,0,1214.85,0.62,0.6,179.734,"High_Value"
"MRI_faces_108",1,2,3,1,37,181.0174,"2155.jpg","2149.jpg",47,54,0,"y",2,1,1400.4,0.34,0.26,182.9178,"Low_Value"
"MRI_faces_108",1,2,3,1,38,188.0187,"2043.jpg","1146.jpg",48,50,1,"x",2,NA,999000,0.32,0.31,190.0191,"Low_Value"
"MRI_faces_108",1,2,3,2,1,2.013822,"1007.jpg","2094.jpg",16,12,1,"y",1,0,903.85,0.62,0.71,3.415364,"High_Value"
"MRI_faces_108",1,2,3,2,2,6.014499,"2153.jpg","1027.jpg",10,11,0,"b",1,0,1128.17,0.72,0.72,7.648242,"High_Value"
"MRI_faces_108",1,2,3,2,3,13.01581,"2118.jpg","2153.jpg",14,10,1,"y",1,0,897.87,0.63,0.72,14.41615,"High_Value"
"MRI_faces_108",1,2,3,2,4,16.01627,"1027.jpg","1017.jpg",11,18,1,"b",1,1,1026.39,0.72,0.6,17.54433,"High_Value"
"MRI_faces_108",1,2,3,2,5,21.01719,"1013.jpg","1019.jpg",7,9,0,"y",1,1,1303.49,0.76,0.73,22.81755,"High_Value"
"MRI_faces_108",1,2,3,2,6,31.01897,"2155.jpg","2194.jpg",47,49,0,"y",2,1,1254.7,0.34,0.31,32.7778,"Low_Value"
"MRI_faces_108",1,2,3,2,7,34.01947,"1052.jpg","2212.jpg",56,6,0,"y",4,1,900.2,0.24,0.77,35.41984,"Sanity"
"MRI_faces_108",1,2,3,2,8,37.01996,"2149.jpg","1146.jpg",54,50,1,"b",2,1,686.72,0.26,0.31,38.20386,"Low_Value"
"MRI_faces_108",1,2,3,2,9,46.02168,"2155.jpg","1216.jpg",47,43,0,"y",2,1,988.99,0.34,0.37,47.51146,"Low_Value"
"MRI_faces_108",1,2,3,2,10,49.02211,"1114.jpg","2094.jpg",17,12,1,"y",1,0,795.59,0.62,0.71,50.31149,"High_Value"
"MRI_faces_108",1,2,3,2,11,59.0115,"2053.jpg","1146.jpg",51,50,1,"b",2,1,904.21,0.3,0.31,60.42424,"Low_Value"
"MRI_faces_108",1,2,3,2,12,64.01148,"1183.jpg","2043.jpg",52,48,0,"b",2,0,1173.19,0.3,0.32,65.69495,"Low_Value"
"MRI_faces_108",1,2,3,2,13,69.01155,"1114.jpg","1013.jpg",17,7,1,"b",1,1,971.13,0.62,0.76,70.4927,"High_Value"
"MRI_faces_108",1,2,3,2,14,77.01175,"1216.jpg","2128.jpg",43,44,1,"b",2,1,912.93,0.37,0.34,78.42848,"Low_Value"
"MRI_faces_108",1,2,3,2,15,84.01176,"1073.jpg","1114.jpg",15,17,0,"y",1,1,1444.94,0.62,0.62,85.96197,"High_Value"
"MRI_faces_108",1,2,3,2,16,88.01227,"2194.jpg","1183.jpg",49,52,1,"b",2,1,1167.4,0.31,0.3,89.67933,"Low_Value"
"MRI_faces_108",1,2,3,2,17,91.01277,"2153.jpg","2125.jpg",10,8,0,"b",1,0,1212.9,0.72,0.74,92.72983,"High_Value"
"MRI_faces_108",1,2,3,2,18,96.01364,"2229.jpg","1019.jpg",13,9,0,"y",1,1,1117.04,0.69,0.73,97.63077,"High_Value"
"MRI_faces_108",1,2,3,2,19,99.0142,"1173.jpg","2128.jpg",46,44,1,"b",2,1,920.5,0.34,0.34,100.4312,"Low_Value"
"MRI_faces_108",1,2,3,2,20,107.0155,"2229.jpg","1114.jpg",13,17,0,"y",1,1,1033.12,0.69,0.62,108.5493,"High_Value"
"MRI_faces_108",1,2,3,2,21,113.0167,"1173.jpg","2058.jpg",46,53,1,"y",2,0,1174,0.34,0.29,114.6957,"Low_Value"
"MRI_faces_108",1,2,3,2,22,118.0175,"1146.jpg","2194.jpg",50,49,0,"y",2,1,1218.14,0.31,0.31,119.7346,"Low_Value"
"MRI_faces_108",1,2,3,2,23,123.0183,"1013.jpg","1007.jpg",7,16,0,"y",1,1,1101.37,0.76,0.62,124.6187,"High_Value"
"MRI_faces_108",1,2,3,2,24,126.0189,"1146.jpg","1173.jpg",50,46,0,"b",2,0,1232.8,0.31,0.34,127.7526,"Low_Value"
"MRI_faces_108",1,2,3,2,25,140.0213,"2212.jpg","1035.jpg",6,55,1,"b",4,1,930.4,0.77,0.24,141.446,"Sanity"
"MRI_faces_108",1,2,3,2,26,143.0219,"2229.jpg","2118.jpg",13,14,0,"y",1,1,1080.77,0.69,0.63,144.5961,"High_Value"
"MRI_faces_108",1,2,3,2,27,147.0226,"2058.jpg","2194.jpg",53,49,0,"y",2,1,906.05,0.29,0.31,148.4295,"Low_Value"
"MRI_faces_108",1,2,3,2,28,151.0127,"1073.jpg","2125.jpg",15,8,0,"b",1,0,934.01,0.62,0.74,152.4569,"High_Value"
"MRI_faces_108",1,2,3,2,29,154.0128,"1173.jpg","1183.jpg",46,52,1,"y",2,0,1251.88,0.34,0.3,155.7742,"Low_Value"
"MRI_faces_108",1,2,3,2,30,157.0128,"2058.jpg","2149.jpg",53,54,0,"b",2,0,1319.86,0.29,0.26,158.8414,"Low_Value"
"MRI_faces_108",1,2,3,2,31,163.0129,"2128.jpg","2149.jpg",44,54,0,"b",2,0,1243.78,0.34,0.26,164.7632,"Low_Value"
"MRI_faces_108",1,2,3,2,32,169.013,"2149.jpg","1183.jpg",54,52,1,"y",2,0,1055.63,0.26,0.3,170.5767,"Low_Value"
"MRI_faces_108",1,2,3,2,33,172.013,"2229.jpg","2125.jpg",13,8,0,"x",1,NA,999000,0.69,0.74,174.0131,"High_Value"
"MRI_faces_108",1,2,3,2,34,175.013,"2053.jpg","2058.jpg",51,53,1,"b",2,1,955.71,0.3,0.29,176.4778,"Low_Value"
"MRI_faces_108",1,2,3,2,35,179.0131,"2125.jpg","1017.jpg",8,18,1,"y",1,0,1196.57,0.74,0.6,180.7132,"High_Value"
"MRI_faces_108",1,2,3,2,36,182.0132,"1019.jpg","1073.jpg",9,15,1,"b",1,1,845.51,0.73,0.62,183.3632,"High_Value"
"MRI_faces_108",1,2,3,2,37,185.0132,"2043.jpg","2155.jpg",48,47,1,"y",2,0,800.51,0.32,0.34,186.3133,"Low_Value"
"MRI_faces_108",1,2,3,2,38,188.0148,"1019.jpg","2153.jpg",9,10,1,"y",1,0,1157.86,0.73,0.72,189.68,"High_Value"
"MRI_faces_108",1,2,4,1,1,2.013513,"1173.jpg","2155.jpg",46,47,1,"b",2,1,962.22,0.34,0.34,3.481325,"Low_Value"
"MRI_faces_108",1,2,4,1,2,9.013602,"1216.jpg","2058.jpg",43,53,1,"b",2,1,826.13,0.37,0.29,10.34703,"Low_Value"
"MRI_faces_108",1,2,4,1,3,22.01686,"1073.jpg","1007.jpg",15,16,0,"y",1,1,982.89,0.62,0.62,23.49813,"High_Value"
"MRI_faces_108",1,2,4,1,4,26.01696,"1013.jpg","1114.jpg",7,17,0,"b",1,0,1070.74,0.76,0.62,27.58214,"High_Value"
"MRI_faces_108",1,2,4,1,5,31.01605,"1073.jpg","1027.jpg",15,11,0,"b",1,0,1050.67,0.62,0.72,32.56637,"High_Value"
"MRI_faces_108",1,2,4,1,6,34.01659,"1017.jpg","2118.jpg",18,14,0,"y",1,1,1023.13,0.6,0.63,35.53356,"High_Value"
"MRI_faces_108",1,2,4,1,7,39.01738,"1052.jpg","2212.jpg",56,6,0,"y",4,1,1115.33,0.24,0.77,40.63442,"Sanity"
"MRI_faces_108",1,2,4,1,8,43.0182,"2153.jpg","1027.jpg",10,11,0,"b",1,0,853.51,0.72,0.72,44.36847,"High_Value"
"MRI_faces_108",1,2,4,1,9,52.01974,"1216.jpg","2128.jpg",43,44,1,"y",2,0,1028.96,0.37,0.34,53.54763,"Low_Value"
"MRI_faces_108",1,2,4,1,10,57.02056,"1007.jpg","1013.jpg",16,7,1,"y",1,0,980.15,0.62,0.76,58.49773,"High_Value"
"MRI_faces_108",1,2,4,1,11,61.02126,"2153.jpg","1019.jpg",10,9,0,"b",1,0,743.47,0.72,0.73,62.26467,"High_Value"
"MRI_faces_108",1,2,4,1,12,68.02248,"1246.jpg","2194.jpg",45,49,0,"y",2,1,667.24,0.34,0.31,69.18127,"Low_Value"
"MRI_faces_108",1,2,4,1,13,72.02317,"2043.jpg","2155.jpg",48,47,1,"b",2,1,1159.54,0.32,0.34,73.67358,"Low_Value"
"MRI_faces_108",1,2,4,1,14,78.01464,"2194.jpg","2128.jpg",49,44,1,"b",2,1,928.09,0.31,0.34,79.44785,"Low_Value"
"MRI_faces_108",1,2,4,1,15,83.01472,"2153.jpg","2118.jpg",10,14,0,"b",1,0,802,0.72,0.63,84.31481,"High_Value"
"MRI_faces_108",1,2,4,1,16,87.01475,"2194.jpg","1183.jpg",49,52,1,"b",2,1,1063.96,0.31,0.3,88.58157,"Low_Value"
"MRI_faces_108",1,2,4,1,17,90.0148,"1027.jpg","2229.jpg",11,13,1,"b",1,1,1121.94,0.72,0.69,91.64338,"High_Value"
"MRI_faces_108",1,2,4,1,18,93.01482,"1019.jpg","2229.jpg",9,13,1,"b",1,1,1087.9,0.73,0.69,94.59828,"High_Value"
"MRI_faces_108",1,2,4,1,19,97.01487,"2094.jpg","1027.jpg",12,11,0,"b",1,0,1042.82,0.71,0.72,98.5613,"High_Value"
"MRI_faces_108",1,2,4,1,20,110.015,"2094.jpg","1114.jpg",12,17,0,"b",1,0,806.74,0.71,0.62,111.3151,"High_Value"
"MRI_faces_108",1,2,4,1,21,114.0151,"2058.jpg","1173.jpg",53,46,0,"y",2,1,1066.65,0.29,0.34,115.5819,"Low_Value"
"MRI_faces_108",1,2,4,1,22,117.0151,"1146.jpg","2043.jpg",50,48,0,"b",2,0,1089.58,0.31,0.32,118.5987,"Low_Value"
"MRI_faces_108",1,2,4,1,23,122.0153,"2149.jpg","1183.jpg",54,52,1,"y",2,0,927.47,0.26,0.3,123.449,"Low_Value"
"MRI_faces_108",1,2,4,1,24,125.0157,"1114.jpg","2153.jpg",17,10,1,"y",1,0,1071.97,0.62,0.72,126.5829,"High_Value"
"MRI_faces_108",1,2,4,1,25,129.0165,"1146.jpg","2149.jpg",50,54,0,"b",2,0,1053.25,0.31,0.26,130.5668,"Low_Value"
"MRI_faces_108",1,2,4,1,26,135.0174,"1246.jpg","1216.jpg",45,43,0,"y",2,1,831.27,0.34,0.37,136.3512,"Low_Value"
"MRI_faces_108",1,2,4,1,27,138.018,"1007.jpg","2153.jpg",16,10,1,"y",1,0,752.74,0.62,0.72,139.2683,"High_Value"
"MRI_faces_108",1,2,4,1,28,142.0188,"2229.jpg","2125.jpg",13,8,0,"y",1,1,703.94,0.69,0.74,143.2191,"High_Value"
"MRI_faces_108",1,2,4,1,29,147.0196,"2058.jpg","2149.jpg",53,54,0,"y",2,1,1114.12,0.29,0.26,148.6323,"Low_Value"
"MRI_faces_108",1,2,4,1,30,151.0203,"2053.jpg","2155.jpg",51,47,1,"y",2,0,1029.44,0.3,0.34,152.549,"Low_Value"
"MRI_faces_108",1,2,4,1,31,163.0157,"1216.jpg","1183.jpg",43,52,1,"b",2,1,908.04,0.37,0.3,164.4227,"Low_Value"
"MRI_faces_108",1,2,4,1,32,169.0158,"1013.jpg","1027.jpg",7,11,0,"b",1,0,1095.9,0.76,0.72,170.6159,"High_Value"
"MRI_faces_108",1,2,4,1,33,172.0159,"2043.jpg","1183.jpg",48,52,1,"y",2,0,840.87,0.32,0.3,173.3577,"Low_Value"
"MRI_faces_108",1,2,4,1,34,176.0158,"2063.jpg","1035.jpg",5,55,1,"b",4,1,1122.93,0.81,0.24,177.6417,"Sanity"
"MRI_faces_108",1,2,4,1,35,179.0159,"1183.jpg","1173.jpg",52,46,0,"y",2,1,993.81,0.3,0.34,180.5089,"Low_Value"
"MRI_faces_108",1,2,4,1,36,182.0159,"2125.jpg","2153.jpg",8,10,1,"y",1,0,1028.8,0.74,0.72,183.5495,"High_Value"
"MRI_faces_108",1,2,4,1,37,185.0159,"2194.jpg","1146.jpg",49,50,1,"b",2,1,1054.77,0.31,0.31,186.5663,"Low_Value"
"MRI_faces_108",1,2,4,1,38,188.0189,"1027.jpg","1017.jpg",11,18,1,"y",1,0,1136.75,0.72,0.6,189.6495,"High_Value"
"MRI_faces_108",1,2,4,2,1,2.022268,"2194.jpg","2155.jpg",49,47,1,"b",2,1,1034.77,0.31,0.34,3.556803,"Low_Value"
"MRI_faces_108",1,2,4,2,2,9.02245,"1216.jpg","2155.jpg",43,47,1,"y",2,0,706.56,0.37,0.34,10.23338,"Low_Value"
"MRI_faces_108",1,2,4,2,3,22.02271,"1019.jpg","1017.jpg",9,18,1,"b",1,1,893.32,0.73,0.6,23.41907,"High_Value"
"MRI_faces_108",1,2,4,2,4,26.02267,"1013.jpg","1019.jpg",7,9,0,"y",1,1,798.36,0.76,0.73,27.32296,"High_Value"
"MRI_faces_108",1,2,4,2,5,31.02279,"1216.jpg","1146.jpg",43,50,1,"b",2,1,1042.23,0.37,0.31,32.55627,"Low_Value"
"MRI_faces_108",1,2,4,2,6,34.02285,"1173.jpg","1146.jpg",46,50,1,"b",2,1,941.17,0.34,0.31,35.45631,"Low_Value"
"MRI_faces_108",1,2,4,2,7,39.02291,"1073.jpg","2118.jpg",15,14,0,"y",1,1,790.13,0.62,0.63,40.30642,"High_Value"
"MRI_faces_108",1,2,4,2,8,43.02292,"1246.jpg","2053.jpg",45,51,0,"y",2,1,873.09,0.34,0.3,44.38972,"Low_Value"
"MRI_faces_108",1,2,4,2,9,52.02403,"2149.jpg","1246.jpg",54,45,1,"b",2,1,883.98,0.26,0.34,53.40762,"Low_Value"
"MRI_faces_108",1,2,4,2,10,57.02487,"2125.jpg","1073.jpg",8,15,1,"b",1,1,723.18,0.74,0.62,58.24178,"High_Value"
"MRI_faces_108",1,2,4,2,11,61.0255,"2058.jpg","2043.jpg",53,48,0,"b",2,0,930.52,0.29,0.32,62.4567,"Low_Value"
"MRI_faces_108",1,2,4,2,12,68.02332,"1017.jpg","2125.jpg",18,8,0,"y",1,1,708.69,0.6,0.74,69.22706,"High_Value"
"MRI_faces_108",1,2,4,2,13,72.02335,"1019.jpg","2094.jpg",9,12,1,"y",1,0,813.64,0.73,0.71,73.34027,"High_Value"
"MRI_faces_108",1,2,4,2,14,78.02337,"1073.jpg","1019.jpg",15,9,0,"y",1,1,1275.64,0.62,0.73,79.79559,"High_Value"
"MRI_faces_108",1,2,4,2,15,83.02343,"1007.jpg","2229.jpg",16,13,1,"b",1,1,1137.59,0.62,0.69,84.66317,"High_Value"
"MRI_faces_108",1,2,4,2,16,87.02357,"2128.jpg","2053.jpg",44,51,0,"b",2,0,1238.48,0.34,0.3,88.76383,"Low_Value"
"MRI_faces_108",1,2,4,2,17,90.02355,"2094.jpg","1007.jpg",12,16,0,"b",1,0,719.45,0.71,0.62,91.24035,"High_Value"
"MRI_faces_108",1,2,4,2,18,93.02367,"2043.jpg","2128.jpg",48,44,1,"y",2,0,902.36,0.32,0.34,94.42369,"Low_Value"
"MRI_faces_108",1,2,4,2,19,97.02364,"1183.jpg","2053.jpg",52,51,0,"y",2,1,1199.37,0.3,0.3,98.72375,"Low_Value"
"MRI_faces_108",1,2,4,2,20,110.0238,"1017.jpg","1007.jpg",18,16,0,"b",1,0,1040.2,0.6,0.62,111.5573,"High_Value"
"MRI_faces_108",1,2,4,2,21,114.0239,"2053.jpg","1146.jpg",51,50,1,"y",2,0,1256.1,0.3,0.31,115.774,"Low_Value"
"MRI_faces_108",1,2,4,2,22,117.0239,"1114.jpg","1073.jpg",17,15,1,"b",1,1,1097.07,0.62,0.62,118.624,"High_Value"
"MRI_faces_108",1,2,4,2,23,122.0241,"2118.jpg","1013.jpg",14,7,1,"b",1,1,1137.97,0.63,0.76,123.6574,"High_Value"
"MRI_faces_108",1,2,4,2,24,125.024,"2149.jpg","2155.jpg",54,47,1,"b",2,1,1283,0.26,0.34,126.8075,"Low_Value"
"MRI_faces_108",1,2,4,2,25,129.0241,"2058.jpg","2053.jpg",53,51,0,"y",2,1,1161.91,0.29,0.3,130.6878,"Low_Value"
"MRI_faces_108",1,2,4,2,26,135.0241,"1017.jpg","1114.jpg",18,17,0,"b",1,0,1092.86,0.6,0.62,136.6076,"High_Value"
"MRI_faces_108",1,2,4,2,27,138.0241,"2194.jpg","2058.jpg",49,53,1,"b",2,1,870.86,0.31,0.29,139.391,"Low_Value"
"MRI_faces_108",1,2,4,2,28,142.0243,"2094.jpg","2118.jpg",12,14,0,"b",1,0,706.7,0.71,0.63,143.2244,"High_Value"
"MRI_faces_108",1,2,4,2,29,147.0243,"2043.jpg","1246.jpg",48,45,1,"b",2,1,966.74,0.32,0.34,148.4912,"Low_Value"
"MRI_faces_108",1,2,4,2,30,151.0246,"1246.jpg","1173.jpg",45,46,0,"y",2,1,893.43,0.34,0.34,152.4083,"Low_Value"
"MRI_faces_108",1,2,4,2,31,163.0266,"2229.jpg","1114.jpg",13,17,0,"b",1,0,1017.42,0.69,0.62,164.5436,"High_Value"
"MRI_faces_108",1,2,4,2,32,169.0246,"1013.jpg","2125.jpg",7,8,0,"y",1,1,675.36,0.76,0.74,170.1946,"High_Value"
"MRI_faces_108",1,2,4,2,33,172.0247,"2063.jpg","1052.jpg",5,56,1,"b",4,1,1090.29,0.81,0.24,173.6119,"Sanity"
"MRI_faces_108",1,2,4,2,34,176.0247,"2125.jpg","2094.jpg",8,12,1,"y",1,0,748.35,0.74,0.71,177.2749,"High_Value"
"MRI_faces_108",1,2,4,2,35,179.0247,"1035.jpg","2212.jpg",55,6,0,"y",4,1,947.26,0.24,0.77,180.4631,"Sanity"
"MRI_faces_108",1,2,4,2,36,182.0247,"2229.jpg","2118.jpg",13,14,0,"b",1,0,1005.33,0.69,0.63,183.5303,"High_Value"
"MRI_faces_108",1,2,4,2,37,185.0249,"2149.jpg","2128.jpg",54,44,1,"b",2,1,1069.14,0.26,0.34,186.5916,"Low_Value"
"MRI_faces_108",1,2,4,2,38,188.0248,"2128.jpg","1173.jpg",44,46,0,"y",2,1,1204.19,0.34,0.34,189.7251,"Low_Value"
"MRI_faces_110",1,2,3,1,1,2.025326,"1226.jpg","1173.jpg",49,47,1,"b",2,1,1407.24,0.34,0.36,3.930654,"Low_Value"
"MRI_faces_110",1,2,3,1,2,9.026651,"1173.jpg","1146.jpg",47,48,0,"y",2,1,1221.91,0.36,0.35,10.74729,"Low_Value"
"MRI_faces_110",1,2,3,1,3,22.01415,"2063.jpg","1145.jpg",17,7,1,"b",1,1,859.42,0.61,0.79,23.38093,"High_Value"
"MRI_faces_110",1,2,3,1,4,26.01412,"2149.jpg","2041.jpg",53,51,0,"y",2,1,1183.44,0.25,0.31,27.69777,"Low_Value"
"MRI_faces_110",1,2,3,1,5,31.01416,"2181.jpg","1183.jpg",15,16,0,"b",1,0,1164.38,0.72,0.61,32.6811,"High_Value"
"MRI_faces_110",1,2,3,1,6,34.0143,"2240.jpg","1226.jpg",44,49,0,"b",2,0,1206.26,0.36,0.34,35.73155,"Low_Value"
"MRI_faces_110",1,2,3,1,7,39.01522,"1031.jpg","1145.jpg",9,7,1,"b",1,1,1491.34,0.75,0.79,41.01572,"High_Value"
"MRI_faces_110",1,2,3,1,8,43.01588,"2218.jpg","1035.jpg",14,10,1,"y",1,0,976.7,0.72,0.74,44.49978,"High_Value"
"MRI_faces_110",1,2,3,1,9,52.01736,"2063.jpg","1050.jpg",17,12,1,"b",1,1,940.2,0.61,0.74,53.46458,"High_Value"
"MRI_faces_110",1,2,3,1,10,57.01834,"2045.jpg","1204.jpg",46,50,1,"b",2,1,897.22,0.36,0.31,58.41882,"Low_Value"
"MRI_faces_110",1,2,3,1,11,61.01904,"2209.jpg","2181.jpg",8,15,1,"x",1,NA,999000,0.77,0.72,63.01967,"High_Value"
"MRI_faces_110",1,2,3,1,12,68.0202,"2209.jpg","1060.jpg",8,13,1,"b",1,1,627.35,0.77,0.73,69.15395,"High_Value"
"MRI_faces_110",1,2,3,1,13,72.02091,"1019.jpg","2153.jpg",45,54,0,"b",2,0,994.66,0.36,0.22,73.52131,"Low_Value"
"MRI_faces_110",1,2,3,1,14,78.02199,"2063.jpg","1035.jpg",17,10,1,"b",1,1,1013.57,0.61,0.74,79.53917,"High_Value"
"MRI_faces_110",1,2,3,1,15,83.02293,"2063.jpg","1060.jpg",17,13,1,"b",1,1,1126.63,0.61,0.73,84.64845,"High_Value"
"MRI_faces_110",1,2,3,1,16,87.02353,"1060.jpg","1183.jpg",13,16,0,"b",1,0,1119.02,0.73,0.61,88.64075,"High_Value"
"MRI_faces_110",1,2,3,1,17,90.02407,"2218.jpg","2125.jpg",14,18,1,"y",1,0,1126.49,0.72,0.61,91.64863,"High_Value"
"MRI_faces_110",1,2,3,1,18,93.02461,"2125.jpg","1017.jpg",18,11,0,"b",1,0,1118.95,0.61,0.74,94.64176,"High_Value"
"MRI_faces_110",1,2,3,1,19,97.02536,"2181.jpg","2218.jpg",15,14,0,"x",1,NA,999000,0.72,0.72,99.0259,"High_Value"
"MRI_faces_110",1,2,3,1,20,110.0153,"1173.jpg","2045.jpg",47,46,0,"b",2,0,710.25,0.36,0.36,111.2321,"Low_Value"
"MRI_faces_110",1,2,3,1,21,114.0153,"2128.jpg","1226.jpg",52,49,0,"b",2,0,826.26,0.28,0.34,115.3489,"Low_Value"
"MRI_faces_110",1,2,3,1,22,117.0153,"2149.jpg","1052.jpg",53,43,0,"y",2,1,862.23,0.25,0.37,118.3823,"Low_Value"
"MRI_faces_110",1,2,3,1,23,122.0154,"1146.jpg","2149.jpg",48,53,1,"b",2,1,858.16,0.35,0.25,123.3823,"Low_Value"
"MRI_faces_110",1,2,3,1,24,125.0155,"2125.jpg","2209.jpg",18,8,0,"y",1,1,941.11,0.61,0.77,126.4656,"High_Value"
"MRI_faces_110",1,2,3,1,25,129.0155,"1019.jpg","1226.jpg",45,49,0,"y",2,1,963.1,0.36,0.34,130.4825,"Low_Value"
"MRI_faces_110",1,2,3,1,26,135.0157,"1017.jpg","1060.jpg",11,13,1,"b",1,1,722.9,0.74,0.73,136.2491,"High_Value"
"MRI_faces_110",1,2,3,1,27,138.0158,"1146.jpg","1204.jpg",48,50,1,"y",2,0,961.81,0.35,0.31,139.4829,"Low_Value"
"MRI_faces_110",1,2,3,1,28,142.0165,"2045.jpg","2128.jpg",46,52,1,"y",2,0,730.05,0.36,0.28,143.2501,"Low_Value"
"MRI_faces_110",1,2,3,1,29,147.0173,"2153.jpg","2240.jpg",54,44,1,"y",2,0,849.24,0.22,0.36,148.3677,"Low_Value"
"MRI_faces_110",1,2,3,1,30,151.0181,"1150.jpg","1114.jpg",55,6,0,"y",4,1,1060.49,0.18,0.81,152.5851,"Sanity"
"MRI_faces_110",1,2,3,1,31,163.0202,"1226.jpg","1204.jpg",49,50,1,"y",2,0,819.41,0.34,0.31,164.3371,"Low_Value"
"MRI_faces_110",1,2,3,1,32,169.0212,"1145.jpg","1017.jpg",7,11,0,"b",1,0,814.32,0.79,0.74,170.3382,"High_Value"
"MRI_faces_110",1,2,3,1,33,172.0217,"1060.jpg","2218.jpg",13,14,0,"b",1,0,948.86,0.73,0.72,173.4718,"High_Value"
"MRI_faces_110",1,2,3,1,34,176.0223,"2128.jpg","1146.jpg",52,48,0,"y",2,1,1039.22,0.28,0.35,177.5664,"Low_Value"
"MRI_faces_110",1,2,3,1,35,179.0228,"1183.jpg","2125.jpg",16,18,1,"y",1,0,860.72,0.61,0.61,180.3831,"High_Value"
"MRI_faces_110",1,2,3,1,36,182.0234,"2128.jpg","2041.jpg",52,51,0,"y",2,1,1001.16,0.28,0.31,183.5239,"Low_Value"
"MRI_faces_110",1,2,3,1,37,185.024,"1114.jpg","1073.jpg",6,56,1,"y",4,0,1257.59,0.81,0.18,186.7832,"Sanity"
"MRI_faces_110",1,2,3,1,38,188.0244,"2240.jpg","2041.jpg",44,51,0,"b",2,0,950.12,0.36,0.31,189.4748,"Low_Value"
"MRI_faces_110",1,2,3,2,1,2.032153,"2240.jpg","1146.jpg",44,48,0,"y",2,1,1084.18,0.36,0.35,3.615923,"Low_Value"
"MRI_faces_110",1,2,3,2,2,6.032844,"2041.jpg","1204.jpg",51,50,1,"b",2,1,921.49,0.31,0.31,7.454717,"Low_Value"
"MRI_faces_110",1,2,3,2,3,13.03409,"2128.jpg","1052.jpg",52,43,0,"y",2,1,1014.24,0.28,0.37,14.53817,"Low_Value"
"MRI_faces_110",1,2,3,2,4,16.03462,"2041.jpg","1173.jpg",51,47,1,"b",2,1,889.7,0.31,0.36,17.42147,"Low_Value"
"MRI_faces_110",1,2,3,2,5,21.02126,"1146.jpg","1019.jpg",48,45,1,"b",2,1,878.06,0.35,0.36,22.40488,"Low_Value"
"MRI_faces_110",1,2,3,2,6,31.02146,"2041.jpg","1019.jpg",51,45,1,"b",2,1,865.88,0.31,0.36,32.38836,"Low_Value"
"MRI_faces_110",1,2,3,2,7,34.02148,"2181.jpg","1031.jpg",15,9,0,"y",1,1,1014.88,0.72,0.75,35.53847,"High_Value"
"MRI_faces_110",1,2,3,2,8,37.0216,"2209.jpg","1145.jpg",8,7,1,"b",1,1,942.74,0.77,0.79,38.47211,"High_Value"
"MRI_faces_110",1,2,3,2,9,46.02324,"1035.jpg","1183.jpg",10,16,0,"y",1,1,981.12,0.74,0.61,47.50685,"High_Value"
"MRI_faces_110",1,2,3,2,10,49.02372,"1031.jpg","2125.jpg",9,18,1,"y",1,0,1007.61,0.75,0.61,50.54076,"High_Value"
"MRI_faces_110",1,2,3,2,11,59.02543,"1204.jpg","1052.jpg",50,43,0,"b",2,0,722.91,0.31,0.37,60.2554,"Low_Value"
"MRI_faces_110",1,2,3,2,12,64.02634,"1017.jpg","2181.jpg",11,15,1,"y",1,0,843.02,0.74,0.72,65.37665,"High_Value"
"MRI_faces_110",1,2,3,2,13,69.02716,"1035.jpg","2209.jpg",10,8,0,"y",1,1,874.17,0.74,0.77,70.40544,"High_Value"
"MRI_faces_110",1,2,3,2,14,77.02861,"2153.jpg","2128.jpg",54,52,1,"y",2,0,883.72,0.22,0.28,78.41241,"Low_Value"
"MRI_faces_110",1,2,3,2,15,84.0298,"2045.jpg","2240.jpg",46,44,1,"y",2,0,939.53,0.36,0.36,85.47242,"Low_Value"
"MRI_faces_110",1,2,3,2,16,88.03048,"1050.jpg","2218.jpg",12,14,0,"y",1,1,911.85,0.74,0.72,89.43919,"High_Value"
"MRI_faces_110",1,2,3,2,17,91.03103,"1035.jpg","1017.jpg",10,11,0,"b",1,0,994.3,0.74,0.74,92.52248,"High_Value"
"MRI_faces_110",1,2,3,2,18,96.03188,"1173.jpg","2153.jpg",47,54,0,"y",2,1,667.45,0.36,0.22,97.19886,"Low_Value"
"MRI_faces_110",1,2,3,2,19,99.03236,"2153.jpg","2149.jpg",54,53,1,"b",2,1,1109.96,0.22,0.25,100.6392,"Low_Value"
"MRI_faces_110",1,2,3,2,20,107.0338,"1145.jpg","2218.jpg",7,14,0,"y",1,1,875.58,0.79,0.72,108.4061,"High_Value"
"MRI_faces_110",1,2,3,2,21,113.0226,"1150.jpg","2010.jpg",55,5,0,"x",4,NA,999000,0.18,0.81,115.0229,"Sanity"
"MRI_faces_110",1,2,3,2,22,118.0227,"1204.jpg","2153.jpg",50,54,0,"y",2,1,702.67,0.31,0.22,119.236,"Low_Value"
"MRI_faces_110",1,2,3,2,23,123.0227,"1031.jpg","1035.jpg",9,10,1,"y",1,0,820.64,0.75,0.74,124.3536,"High_Value"
"MRI_faces_110",1,2,3,2,24,126.0228,"1019.jpg","2045.jpg",45,46,0,"b",2,0,733.56,0.36,0.36,127.2562,"Low_Value"
"MRI_faces_110",1,2,3,2,25,140.0229,"1052.jpg","1019.jpg",43,45,1,"y",2,0,965.46,0.37,0.36,141.49,"Low_Value"
"MRI_faces_110",1,2,3,2,26,143.0234,"1183.jpg","1145.jpg",16,7,1,"b",1,1,1130.92,0.61,0.79,144.6572,"High_Value"
"MRI_faces_110",1,2,3,2,27,147.024,"2240.jpg","1052.jpg",44,43,0,"b",2,0,794.32,0.36,0.37,148.3246,"Low_Value"
"MRI_faces_110",1,2,3,2,28,151.0247,"2010.jpg","1073.jpg",5,56,1,"x",4,NA,999000,0.81,0.18,153.0253,"Sanity"
"MRI_faces_110",1,2,3,2,29,154.0252,"1017.jpg","1050.jpg",11,12,1,"y",1,0,894.12,0.74,0.74,155.4257,"High_Value"
"MRI_faces_110",1,2,3,2,30,157.0258,"2045.jpg","2149.jpg",46,53,1,"b",2,1,856.5,0.36,0.25,158.39,"Low_Value"
"MRI_faces_110",1,2,3,2,31,163.0268,"1173.jpg","1052.jpg",47,43,0,"y",2,1,742.56,0.36,0.37,164.2773,"Low_Value"
"MRI_faces_110",1,2,3,2,32,169.0279,"1226.jpg","2149.jpg",49,53,1,"b",2,1,971.5,0.34,0.25,170.495,"Low_Value"
"MRI_faces_110",1,2,3,2,33,172.0284,"2209.jpg","1050.jpg",8,12,1,"b",1,1,872.9,0.77,0.74,173.4068,"High_Value"
"MRI_faces_110",1,2,3,2,34,175.029,"1050.jpg","1183.jpg",12,16,0,"y",1,1,857.37,0.74,0.61,176.3902,"High_Value"
"MRI_faces_110",1,2,3,2,35,179.0296,"2063.jpg","2125.jpg",17,18,1,"y",1,0,888.7,0.61,0.61,180.4237,"High_Value"
"MRI_faces_110",1,2,3,2,36,182.0302,"2181.jpg","2063.jpg",15,17,0,"y",1,1,732.16,0.72,0.61,183.2639,"High_Value"
"MRI_faces_110",1,2,3,2,37,185.0306,"1060.jpg","1031.jpg",13,9,0,"b",1,0,902.73,0.73,0.75,186.4311,"High_Value"
"MRI_faces_110",1,2,3,2,38,188.0312,"1050.jpg","1031.jpg",12,9,0,"x",1,NA,999000,0.74,0.75,190.0316,"High_Value"
"MRI_faces_110",1,2,4,1,1,2.016404,"2209.jpg","2181.jpg",8,15,1,"b",1,1,947.48,0.77,0.72,3.465103,"High_Value"
"MRI_faces_110",1,2,4,1,2,9.015749,"1173.jpg","1146.jpg",47,48,0,"y",2,1,772.14,0.36,0.35,10.28291,"Low_Value"
"MRI_faces_110",1,2,4,1,3,22.0181,"2125.jpg","2218.jpg",18,14,0,"b",1,0,504.78,0.61,0.72,23.01855,"High_Value"
"MRI_faces_110",1,2,4,1,4,26.01886,"1226.jpg","2149.jpg",49,53,1,"b",2,1,921.03,0.34,0.25,27.43601,"Low_Value"
"MRI_faces_110",1,2,4,1,5,31.01967,"2125.jpg","1017.jpg",18,11,0,"y",1,1,848.21,0.61,0.74,32.37007,"High_Value"
"MRI_faces_110",1,2,4,1,6,34.02023,"1060.jpg","1017.jpg",13,11,0,"b",1,0,1336.66,0.73,0.74,35.85408,"High_Value"
"MRI_faces_110",1,2,4,1,7,39.0211,"2218.jpg","1035.jpg",14,10,1,"b",1,1,743.82,0.72,0.74,40.26345,"High_Value"
"MRI_faces_110",1,2,4,1,8,43.02179,"1145.jpg","1031.jpg",7,9,0,"b",1,0,561.12,0.79,0.75,44.08007,"High_Value"
"MRI_faces_110",1,2,4,1,9,52.02328,"1073.jpg","1114.jpg",56,6,0,"b",4,0,599.6,0.18,0.81,53.11364,"Sanity"
"MRI_faces_110",1,2,4,1,10,57.01343,"2045.jpg","1019.jpg",46,45,1,"y",2,0,636.46,0.36,0.36,58.15798,"Low_Value"
"MRI_faces_110",1,2,4,1,11,61.01351,"2041.jpg","2128.jpg",51,52,1,"b",2,1,842.38,0.31,0.28,62.36377,"Low_Value"
"MRI_faces_110",1,2,4,1,12,68.0135,"1031.jpg","1060.jpg",9,13,1,"b",1,1,603.39,0.75,0.73,69.12649,"High_Value"
"MRI_faces_110",1,2,4,1,13,72.01361,"2041.jpg","1019.jpg",51,45,1,"b",2,1,1198.29,0.31,0.36,73.71379,"Low_Value"
"MRI_faces_110",1,2,4,1,14,78.01368,"2240.jpg","2045.jpg",44,46,0,"y",2,1,744.2,0.36,0.36,79.26391,"Low_Value"
"MRI_faces_110",1,2,4,1,15,83.01374,"2125.jpg","2063.jpg",18,17,0,"b",1,0,1091.16,0.61,0.61,84.61391,"High_Value"
"MRI_faces_110",1,2,4,1,16,87.01381,"1060.jpg","1183.jpg",13,16,0,"b",1,0,696.08,0.73,0.61,88.21405,"High_Value"
"MRI_faces_110",1,2,4,1,17,90.01386,"2128.jpg","2153.jpg",52,54,0,"x",2,NA,999000,0.28,0.22,92.014,"Low_Value"
"MRI_faces_110",1,2,4,1,18,93.01385,"1114.jpg","1150.jpg",6,55,1,"b",4,1,939.04,0.81,0.18,94.44761,"Sanity"
"MRI_faces_110",1,2,4,1,19,97.01448,"2149.jpg","2153.jpg",53,54,0,"y",2,1,1009.41,0.25,0.22,98.53158,"Low_Value"
"MRI_faces_110",1,2,4,1,20,110.0168,"2045.jpg","2149.jpg",46,53,1,"b",2,1,546.05,0.36,0.25,111.0672,"Low_Value"
"MRI_faces_110",1,2,4,1,21,114.0174,"1052.jpg","2240.jpg",43,44,1,"y",2,0,797.46,0.37,0.36,115.3178,"Low_Value"
"MRI_faces_110",1,2,4,1,22,117.018,"1204.jpg","2041.jpg",50,51,0,"x",2,NA,999000,0.31,0.31,119.0185,"Low_Value"
"MRI_faces_110",1,2,4,1,23,122.0189,"2218.jpg","1050.jpg",14,12,1,"x",1,NA,999000,0.72,0.74,124.0193,"High_Value"
"MRI_faces_110",1,2,4,1,24,125.0194,"2218.jpg","2181.jpg",14,15,1,"x",1,NA,999000,0.72,0.72,127.0199,"High_Value"
"MRI_faces_110",1,2,4,1,25,129.0201,"2125.jpg","2209.jpg",18,8,0,"y",1,1,781.8,0.61,0.77,130.3038,"High_Value"
"MRI_faces_110",1,2,4,1,26,135.0211,"2128.jpg","1052.jpg",52,43,0,"b",2,0,961.78,0.28,0.37,136.4813,"Low_Value"
"MRI_faces_110",1,2,4,1,27,138.0216,"2149.jpg","1052.jpg",53,43,0,"y",2,1,783.33,0.25,0.37,139.3054,"Low_Value"
"MRI_faces_110",1,2,4,1,28,142.0223,"2153.jpg","1173.jpg",54,47,1,"b",2,1,819.63,0.22,0.36,143.3393,"Low_Value"
"MRI_faces_110",1,2,4,1,29,147.0231,"1145.jpg","1017.jpg",7,11,0,"b",1,0,683.78,0.79,0.74,148.2068,"High_Value"
"MRI_faces_110",1,2,4,1,30,151.0147,"1031.jpg","1050.jpg",9,12,1,"b",1,1,875.23,0.75,0.74,152.3982,"High_Value"
"MRI_faces_110",1,2,4,1,31,163.0147,"1017.jpg","2181.jpg",11,15,1,"b",1,1,632.16,0.74,0.72,164.1482,"High_Value"
"MRI_faces_110",1,2,4,1,32,169.0148,"2181.jpg","1183.jpg",15,16,0,"y",1,1,866.07,0.72,0.61,170.3818,"High_Value"
"MRI_faces_110",1,2,4,1,33,172.0166,"1019.jpg","1146.jpg",45,48,0,"y",2,1,881.29,0.36,0.35,173.3984,"Low_Value"
"MRI_faces_110",1,2,4,1,34,176.0166,"2063.jpg","2181.jpg",17,15,1,"b",1,1,650.25,0.61,0.72,177.1651,"High_Value"
"MRI_faces_110",1,2,4,1,35,179.015,"2045.jpg","1173.jpg",46,47,1,"b",2,1,730.89,0.36,0.36,180.2485,"Low_Value"
"MRI_faces_110",1,2,4,1,36,182.0162,"1146.jpg","2128.jpg",48,52,1,"x",2,NA,999000,0.35,0.28,184.0174,"Low_Value"
"MRI_faces_110",1,2,4,1,37,185.0151,"1031.jpg","1035.jpg",9,10,1,"y",1,0,719.79,0.75,0.74,186.2318,"High_Value"
"MRI_faces_110",1,2,4,1,38,188.0171,"1204.jpg","2045.jpg",50,46,0,"b",2,0,1086.75,0.31,0.36,189.5986,"Low_Value"
"MRI_faces_110",1,2,4,2,1,2.024314,"1183.jpg","1145.jpg",16,7,1,"b",1,1,526.02,0.61,0.79,3.049558,"High_Value"
"MRI_faces_110",1,2,4,2,2,9.024398,"1183.jpg","1050.jpg",16,12,1,"x",1,NA,999000,0.61,0.74,11.02472,"High_Value"
"MRI_faces_110",1,2,4,2,3,22.02454,"2153.jpg","2240.jpg",54,44,1,"b",2,1,601.79,0.22,0.36,23.12486,"Low_Value"
"MRI_faces_110",1,2,4,2,4,26.02466,"1173.jpg","1226.jpg",47,49,0,"b",2,0,731.68,0.36,0.34,27.25823,"Low_Value"
"MRI_faces_110",1,2,4,2,5,31.02465,"1060.jpg","2218.jpg",13,14,0,"x",1,NA,999000,0.73,0.72,33.02481,"High_Value"
"MRI_faces_110",1,2,4,2,6,34.02475,"1035.jpg","2063.jpg",10,17,0,"x",1,NA,999000,0.74,0.61,36.02487,"High_Value"
"MRI_faces_110",1,2,4,2,7,39.02488,"2149.jpg","2041.jpg",53,51,0,"y",2,1,623.45,0.25,0.31,40.14168,"Low_Value"
"MRI_faces_110",1,2,4,2,8,43.02488,"2125.jpg","1183.jpg",18,16,0,"b",1,0,681.45,0.61,0.61,44.20841,"High_Value"
"MRI_faces_110",1,2,4,2,9,52.02502,"1145.jpg","2209.jpg",7,8,0,"y",1,1,781.31,0.79,0.77,53.30863,"High_Value"
"MRI_faces_110",1,2,4,2,10,57.02554,"1204.jpg","1226.jpg",50,49,0,"b",2,0,1083.78,0.31,0.34,58.60934,"Low_Value"
"MRI_faces_110",1,2,4,2,11,61.02624,"2010.jpg","1073.jpg",5,56,1,"b",4,1,1128.08,0.81,0.18,62.64341,"Sanity"
"MRI_faces_110",1,2,4,2,12,68.02736,"1145.jpg","2218.jpg",7,14,0,"x",1,NA,999000,0.79,0.72,70.0253,"High_Value"
"MRI_faces_110",1,2,4,2,13,72.02812,"2209.jpg","1035.jpg",8,10,1,"b",1,1,1119.21,0.77,0.74,73.64523,"High_Value"
"MRI_faces_110",1,2,4,2,14,78.02533,"2209.jpg","1050.jpg",8,12,1,"b",1,1,619,0.77,0.74,79.14626,"High_Value"
"MRI_faces_110",1,2,4,2,15,83.02541,"1035.jpg","1183.jpg",10,16,0,"x",1,NA,999000,0.74,0.61,85.02556,"High_Value"
"MRI_faces_110",1,2,4,2,16,87.02545,"1052.jpg","1204.jpg",43,50,1,"x",2,NA,999000,0.37,0.31,89.02574,"Low_Value"
"MRI_faces_110",1,2,4,2,17,90.02551,"2149.jpg","1146.jpg",53,48,0,"y",2,1,756.82,0.25,0.35,91.28153,"Low_Value"
"MRI_faces_110",1,2,4,2,18,93.02553,"1226.jpg","1019.jpg",49,45,1,"b",2,1,1091.82,0.34,0.36,94.61549,"Low_Value"
"MRI_faces_110",1,2,4,2,19,97.02563,"2041.jpg","1173.jpg",51,47,1,"b",2,1,900.7,0.31,0.36,98.42579,"Low_Value"
"MRI_faces_110",1,2,4,2,20,110.0258,"1146.jpg","1204.jpg",48,50,1,"b",2,1,616.55,0.35,0.31,111.1425,"Low_Value"
"MRI_faces_110",1,2,4,2,21,114.0258,"2153.jpg","1019.jpg",54,45,1,"y",2,0,899.54,0.22,0.36,115.4259,"Low_Value"
"MRI_faces_110",1,2,4,2,22,117.0258,"1050.jpg","1017.jpg",12,11,0,"b",1,0,890.5,0.74,0.74,118.4093,"High_Value"
"MRI_faces_110",1,2,4,2,23,122.0259,"1145.jpg","2063.jpg",7,17,0,"b",1,0,871.47,0.79,0.61,123.3927,"High_Value"
"MRI_faces_110",1,2,4,2,24,125.0259,"1060.jpg","2209.jpg",13,8,0,"y",1,1,854.44,0.73,0.77,126.3762,"High_Value"
"MRI_faces_110",1,2,4,2,25,129.026,"1019.jpg","1052.jpg",45,43,0,"x",2,NA,999000,0.36,0.37,131.0263,"Low_Value"
"MRI_faces_110",1,2,4,2,26,135.0261,"1035.jpg","1017.jpg",10,11,0,"b",1,0,652.2,0.74,0.74,136.1763,"High_Value"
"MRI_faces_110",1,2,4,2,27,138.0261,"1050.jpg","2063.jpg",12,17,0,"x",1,NA,999000,0.74,0.61,140.0262,"High_Value"
"MRI_faces_110",1,2,4,2,28,142.0262,"1226.jpg","2240.jpg",49,44,1,"x",2,NA,999000,0.34,0.36,144.0263,"Low_Value"
"MRI_faces_110",1,2,4,2,29,147.0262,"1226.jpg","2128.jpg",49,52,1,"b",2,1,746.11,0.34,0.28,148.2598,"Low_Value"
"MRI_faces_110",1,2,4,2,30,151.0262,"2240.jpg","2041.jpg",44,51,0,"b",2,0,673.09,0.36,0.31,152.1932,"Low_Value"
"MRI_faces_110",1,2,4,2,31,163.0272,"1146.jpg","2240.jpg",48,44,1,"y",2,0,812.12,0.35,0.36,164.3277,"Low_Value"
"MRI_faces_110",1,2,4,2,32,169.0265,"1060.jpg","2063.jpg",13,17,0,"y",1,1,776.83,0.73,0.61,170.2954,"High_Value"
"MRI_faces_110",1,2,4,2,33,172.0304,"1031.jpg","2125.jpg",9,18,1,"x",1,NA,999000,0.75,0.61,174.0316,"High_Value"
"MRI_faces_110",1,2,4,2,34,176.0307,"2128.jpg","2045.jpg",52,46,0,"x",2,NA,999000,0.28,0.36,178.0267,"Low_Value"
"MRI_faces_110",1,2,4,2,35,179.0266,"1052.jpg","1173.jpg",43,47,1,"b",2,1,685.72,0.37,0.36,180.2136,"Low_Value"
"MRI_faces_110",1,2,4,2,36,182.0305,"1031.jpg","2181.jpg",9,15,1,"y",1,0,786.8,0.75,0.72,183.3142,"High_Value"
"MRI_faces_110",1,2,4,2,37,185.0268,"2010.jpg","1150.jpg",5,55,1,"b",4,1,637.56,0.81,0.18,186.1649,"Sanity"
"MRI_faces_110",1,2,4,2,38,188.0268,"2153.jpg","1204.jpg",54,50,1,"x",2,NA,999000,0.22,0.31,190.0268,"Low_Value"
"MRI_faces_111",1,1,3,1,1,2.015994,"2110.jpg","2058.jpg",53,54,1,"y",2,0,924.34,0.25,0.25,3.433874,"Low_Value"
"MRI_faces_111",1,1,3,1,2,9.016933,"1052.jpg","2153.jpg",15,14,1,"b",1,1,821.43,0.65,0.66,10.33396,"High_Value"
"MRI_faces_111",1,1,3,1,3,22.01935,"2153.jpg","1127.jpg",14,12,0,"y",1,1,703,0.66,0.72,23.21951,"High_Value"
"MRI_faces_111",1,1,3,1,4,26.0199,"1150.jpg","2248.jpg",55,6,0,"y",4,1,833.43,0.23,0.82,27.35365,"Sanity"
"MRI_faces_111",1,1,3,1,5,31.02077,"2209.jpg","1019.jpg",43,50,0,"b",2,0,871.57,0.35,0.28,32.38789,"Low_Value"
"MRI_faces_111",1,1,3,1,6,34.02132,"1027.jpg","2110.jpg",49,53,0,"b",2,0,808.02,0.28,0.25,35.32165,"Low_Value"
"MRI_faces_111",1,1,3,1,7,39.02217,"2240.jpg","2058.jpg",45,54,1,"y",2,0,997.18,0.34,0.25,40.51675,"Low_Value"
"MRI_faces_111",1,1,3,1,8,43.01663,"2153.jpg","2181.jpg",14,13,0,"y",1,1,965.72,0.66,0.71,44.48346,"High_Value"
"MRI_faces_111",1,1,3,1,9,52.01673,"2181.jpg","1031.jpg",13,11,1,"y",1,0,854.62,0.71,0.72,53.37486,"High_Value"
"MRI_faces_111",1,1,3,1,10,57.01674,"1130.jpg","2063.jpg",10,17,1,"b",1,1,756.62,0.73,0.61,58.27569,"High_Value"
"MRI_faces_111",1,1,3,1,11,61.01684,"2125.jpg","2209.jpg",47,43,1,"y",2,0,850.47,0.32,0.35,62.367,"Low_Value"
"MRI_faces_111",1,1,3,1,12,68.01692,"2094.jpg","1027.jpg",52,49,1,"b",2,1,824.43,0.26,0.28,69.34429,"Low_Value"
"MRI_faces_111",1,1,3,1,13,72.01699,"1035.jpg","2181.jpg",8,13,0,"b",1,0,785.35,0.77,0.71,73.30041,"High_Value"
"MRI_faces_111",1,1,3,1,14,78.01702,"1191.jpg","2015.jpg",16,18,0,"b",1,0,847.3,0.63,0.61,79.36728,"High_Value"
"MRI_faces_111",1,1,3,1,15,83.01709,"2094.jpg","2209.jpg",52,43,1,"y",2,0,724.25,0.26,0.35,84.23389,"Low_Value"
"MRI_faces_111",1,1,3,1,16,87.01718,"1019.jpg","2058.jpg",50,54,1,"b",2,1,660.18,0.28,0.25,88.18089,"Low_Value"
"MRI_faces_111",1,1,3,1,17,90.0173,"1035.jpg","1127.jpg",8,12,0,"b",1,0,736.05,0.77,0.72,91.25068,"High_Value"
"MRI_faces_111",1,1,3,1,18,93.01723,"1127.jpg","1202.jpg",12,9,1,"y",1,0,997.09,0.72,0.76,94.51743,"High_Value"
"MRI_faces_111",1,1,3,1,19,97.01735,"2209.jpg","2110.jpg",43,53,0,"b",2,0,827.97,0.35,0.25,98.34943,"Low_Value"
"MRI_faces_111",1,1,3,1,20,110.0204,"2218.jpg","2209.jpg",44,43,1,"y",2,0,1008.92,0.35,0.35,111.5183,"Low_Value"
"MRI_faces_111",1,1,3,1,21,114.0186,"2063.jpg","1127.jpg",17,12,0,"b",1,0,946.75,0.61,0.72,115.4678,"High_Value"
"MRI_faces_111",1,1,3,1,22,117.0192,"2063.jpg","2015.jpg",17,18,0,"b",1,0,1072.13,0.61,0.61,118.5861,"High_Value"
"MRI_faces_111",1,1,3,1,23,122.0214,"2015.jpg","1031.jpg",18,11,1,"y",1,0,879.97,0.61,0.72,123.4011,"High_Value"
"MRI_faces_111",1,1,3,1,24,125.0206,"1019.jpg","1173.jpg",50,46,1,"b",2,1,868.77,0.28,0.34,126.3875,"Low_Value"
"MRI_faces_111",1,1,3,1,25,129.0212,"1191.jpg","1127.jpg",16,12,0,"b",1,0,904.09,0.63,0.72,130.4216,"High_Value"
"MRI_faces_111",1,1,3,1,26,135.0178,"1052.jpg","1035.jpg",15,8,1,"b",1,1,873.56,0.65,0.77,136.3893,"High_Value"
"MRI_faces_111",1,1,3,1,27,138.0179,"2240.jpg","2041.jpg",45,48,1,"y",2,0,1081.44,0.34,0.31,139.6014,"Low_Value"
"MRI_faces_111",1,1,3,1,28,142.0179,"2110.jpg","2149.jpg",53,51,1,"b",2,1,944.38,0.25,0.26,143.4572,"Low_Value"
"MRI_faces_111",1,1,3,1,29,147.018,"1216.jpg","2063.jpg",7,17,1,"b",1,1,921.34,0.79,0.61,148.4414,"High_Value"
"MRI_faces_111",1,1,3,1,30,151.018,"1202.jpg","1130.jpg",9,10,0,"b",1,0,1029.36,0.76,0.73,152.5421,"High_Value"
"MRI_faces_111",1,1,3,1,31,163.0181,"1150.jpg","1246.jpg",55,5,0,"y",4,1,984.21,0.23,0.84,164.5016,"Sanity"
"MRI_faces_111",1,1,3,1,32,169.0182,"2125.jpg","1027.jpg",47,49,1,"b",2,1,1049.13,0.32,0.28,170.5684,"Low_Value"
"MRI_faces_111",1,1,3,1,33,172.0183,"1027.jpg","2240.jpg",49,45,0,"b",2,0,902.01,0.28,0.34,173.4185,"Low_Value"
"MRI_faces_111",1,1,3,1,34,176.0183,"2209.jpg","2240.jpg",43,45,0,"b",2,0,1008,0.35,0.34,177.5297,"Low_Value"
"MRI_faces_111",1,1,3,1,35,179.0183,"1130.jpg","1191.jpg",10,16,1,"y",1,0,1388,0.73,0.63,180.9019,"High_Value"
"MRI_faces_111",1,1,3,1,36,182.0185,"2041.jpg","1019.jpg",48,50,0,"y",2,1,1347.87,0.31,0.28,183.8686,"Low_Value"
"MRI_faces_111",1,1,3,1,37,185.0184,"1191.jpg","1052.jpg",16,15,0,"y",1,1,848.93,0.63,0.65,186.3686,"High_Value"
"MRI_faces_111",1,1,3,1,38,188.0185,"2058.jpg","2094.jpg",54,52,0,"b",2,0,722.85,0.25,0.26,189.2353,"Low_Value"
"MRI_faces_111",1,1,3,2,1,2.032607,"1191.jpg","2181.jpg",16,13,0,"b",1,0,824.46,0.63,0.71,3.350465,"High_Value"
"MRI_faces_111",1,1,3,2,2,6.032663,"1019.jpg","2149.jpg",50,51,1,"b",2,1,746.39,0.28,0.26,7.279353,"Low_Value"
"MRI_faces_111",1,1,3,2,3,13.03274,"2015.jpg","2153.jpg",18,14,1,"y",1,0,979.3,0.61,0.66,14.51391,"High_Value"
"MRI_faces_111",1,1,3,2,4,16.03277,"2094.jpg","2149.jpg",52,51,1,"b",2,1,842.29,0.26,0.26,17.36638,"Low_Value"
"MRI_faces_111",1,1,3,2,5,21.03291,"2181.jpg","2063.jpg",13,17,1,"y",1,0,843.14,0.71,0.61,22.36641,"High_Value"
"MRI_faces_111",1,1,3,2,6,31.03344,"1202.jpg","1052.jpg",9,15,0,"y",1,1,894.61,0.76,0.65,32.41708,"High_Value"
"MRI_faces_111",1,1,3,2,7,34.03385,"2125.jpg","2041.jpg",47,48,1,"b",2,1,1014.22,0.32,0.31,35.55001,"Low_Value"
"MRI_faces_111",1,1,3,2,8,37.03444,"2240.jpg","1173.jpg",45,46,1,"b",2,1,862.63,0.34,0.34,38.38499,"Low_Value"
"MRI_faces_111",1,1,3,2,9,46.03325,"1031.jpg","1216.jpg",11,7,0,"b",1,0,1332.78,0.72,0.79,47.86669,"High_Value"
"MRI_faces_111",1,1,3,2,10,49.03329,"1202.jpg","1216.jpg",9,7,0,"y",1,1,957.75,0.76,0.79,50.48694,"High_Value"
"MRI_faces_111",1,1,3,2,11,59.03317,"1173.jpg","2125.jpg",46,47,0,"y",2,1,843.88,0.34,0.32,60.37194,"Low_Value"
"MRI_faces_111",1,1,3,2,12,64.03353,"2015.jpg","1035.jpg",18,8,1,"y",1,0,801.54,0.61,0.77,65.33363,"High_Value"
"MRI_faces_111",1,1,3,2,13,69.03354,"1173.jpg","2110.jpg",46,53,0,"b",2,0,805.49,0.34,0.25,70.34034,"Low_Value"
"MRI_faces_111",1,1,3,2,14,77.0337,"2125.jpg","2149.jpg",47,51,1,"b",2,1,663.35,0.32,0.26,78.19177,"Low_Value"
"MRI_faces_111",1,1,3,2,15,84.03372,"1191.jpg","1216.jpg",16,7,0,"b",1,0,882.35,0.63,0.79,85.41728,"High_Value"
"MRI_faces_111",1,1,3,2,16,88.0339,"2041.jpg","2110.jpg",48,53,0,"b",2,0,708.14,0.31,0.25,89.24369,"Low_Value"
"MRI_faces_111",1,1,3,2,17,91.0338,"1027.jpg","1019.jpg",49,50,0,"y",2,1,1122.26,0.28,0.28,92.65072,"Low_Value"
"MRI_faces_111",1,1,3,2,18,96.0339,"2058.jpg","2125.jpg",54,47,0,"y",2,1,881.14,0.25,0.32,97.41176,"Low_Value"
"MRI_faces_111",1,1,3,2,19,99.03398,"2153.jpg","1130.jpg",14,10,0,"b",1,0,850.08,0.66,0.73,100.3841,"High_Value"
"MRI_faces_111",1,1,3,2,20,107.0341,"2015.jpg","1202.jpg",18,9,1,"y",1,0,831.92,0.61,0.76,108.3677,"High_Value"
"MRI_faces_111",1,1,3,2,21,113.0341,"2094.jpg","1173.jpg",52,46,1,"b",2,1,725.94,0.26,0.34,114.251,"Low_Value"
"MRI_faces_111",1,1,3,2,22,118.0343,"2149.jpg","2240.jpg",51,45,0,"b",2,0,882.76,0.26,0.34,119.4156,"Low_Value"
"MRI_faces_111",1,1,3,2,23,123.0343,"2218.jpg","1027.jpg",44,49,1,"b",2,1,877.73,0.35,0.28,124.4011,"Low_Value"
"MRI_faces_111",1,1,3,2,24,126.0343,"2094.jpg","2041.jpg",52,48,1,"b",2,1,961.7,0.26,0.31,127.4845,"Low_Value"
"MRI_faces_111",1,1,3,2,25,140.0346,"1031.jpg","1127.jpg",11,12,0,"b",1,0,858.49,0.72,0.72,141.3861,"High_Value"
"MRI_faces_111",1,1,3,2,26,143.0346,"2063.jpg","1052.jpg",17,15,0,"y",1,1,848.46,0.61,0.65,144.37,"High_Value"
"MRI_faces_111",1,1,3,2,27,147.0346,"1130.jpg","1031.jpg",10,11,1,"y",1,0,949.45,0.73,0.72,148.4706,"High_Value"
"MRI_faces_111",1,1,3,2,28,151.0346,"1052.jpg","1031.jpg",15,11,1,"y",1,0,1108.4,0.65,0.72,152.638,"High_Value"
"MRI_faces_111",1,1,3,2,29,154.0347,"2041.jpg","2218.jpg",48,44,0,"b",2,0,1198.39,0.31,0.35,155.7219,"Low_Value"
"MRI_faces_111",1,1,3,2,30,157.0347,"1173.jpg","2218.jpg",46,44,0,"y",2,1,1017.31,0.34,0.35,158.5516,"Low_Value"
"MRI_faces_111",1,1,3,2,31,163.0348,"1035.jpg","1130.jpg",8,10,0,"b",1,0,856.25,0.77,0.73,164.3901,"High_Value"
"MRI_faces_111",1,1,3,2,32,169.0348,"2153.jpg","1216.jpg",14,7,0,"b",1,0,1009.19,0.66,0.79,170.5412,"High_Value"
"MRI_faces_111",1,1,3,2,33,172.0349,"1246.jpg","2164.jpg",5,56,1,"b",4,1,1046.15,0.84,0.2,173.5751,"Sanity"
"MRI_faces_111",1,1,3,2,34,175.035,"2181.jpg","1202.jpg",13,9,1,"y",1,0,749.06,0.71,0.76,176.2755,"High_Value"
"MRI_faces_111",1,1,3,2,35,179.035,"2218.jpg","2149.jpg",44,51,1,"b",2,1,897.03,0.35,0.26,180.4262,"Low_Value"
"MRI_faces_111",1,1,3,2,36,182.0352,"1035.jpg","1216.jpg",8,7,0,"b",1,0,826.89,0.77,0.79,183.36,"High_Value"
"MRI_faces_111",1,1,3,2,37,185.0351,"2248.jpg","2164.jpg",6,56,1,"b",4,1,893.98,0.82,0.2,186.4272,"Sanity"
"MRI_faces_111",1,1,3,2,38,188.0351,"2218.jpg","2058.jpg",44,54,1,"b",2,1,1148.94,0.35,0.25,189.6778,"Low_Value"
"MRI_faces_111",1,1,4,1,1,2.028283,"1202.jpg","1127.jpg",9,12,0,"b",1,0,774.66,0.76,0.72,3.296313,"High_Value"
"MRI_faces_111",1,1,4,1,2,6.023175,"1191.jpg","1052.jpg",16,15,0,"y",1,1,744.78,0.63,0.65,7.262718,"High_Value"
"MRI_faces_111",1,1,4,1,3,9.023231,"2058.jpg","2125.jpg",54,47,0,"y",2,1,719.76,0.25,0.32,10.24645,"Low_Value"
"MRI_faces_111",1,1,4,1,4,14.02332,"1130.jpg","1031.jpg",10,11,1,"y",1,0,891.65,0.73,0.72,15.41404,"High_Value"
"MRI_faces_111",1,1,4,1,5,17.02338,"1052.jpg","2153.jpg",15,14,1,"b",1,1,812.59,0.65,0.66,18.34022,"High_Value"
"MRI_faces_111",1,1,4,1,6,20.0234,"2209.jpg","2218.jpg",43,44,0,"b",2,0,774.54,0.35,0.35,21.29848,"Low_Value"
"MRI_faces_111",1,1,4,1,7,34.02365,"1031.jpg","1127.jpg",11,12,0,"b",1,0,820.31,0.72,0.72,35.34051,"High_Value"
"MRI_faces_111",1,1,4,1,8,38.02365,"1216.jpg","2063.jpg",7,17,1,"y",1,0,805.34,0.79,0.61,39.32386,"High_Value"
"MRI_faces_111",1,1,4,1,9,42.02373,"1130.jpg","2153.jpg",10,14,1,"y",1,0,1257.24,0.73,0.66,43.77383,"High_Value"
"MRI_faces_111",1,1,4,1,10,45.02379,"2063.jpg","2181.jpg",17,13,0,"b",1,0,822.19,0.61,0.71,46.34058,"High_Value"
"MRI_faces_111",1,1,4,1,11,48.02379,"2041.jpg","2125.jpg",48,47,0,"y",2,1,725.16,0.31,0.32,49.24063,"Low_Value"
"MRI_faces_111",1,1,4,1,12,53.02384,"2153.jpg","2015.jpg",14,18,0,"b",1,0,694.15,0.66,0.61,54.22061,"High_Value"
"MRI_faces_111",1,1,4,1,13,56.02395,"1127.jpg","2063.jpg",12,17,1,"y",1,0,766.01,0.72,0.61,57.29073,"High_Value"
"MRI_faces_111",1,1,4,1,14,66.02412,"2125.jpg","1173.jpg",47,46,1,"b",2,1,803.84,0.32,0.34,67.32419,"Low_Value"
"MRI_faces_111",1,1,4,1,15,72.02417,"2094.jpg","1173.jpg",52,46,1,"b",2,1,765.78,0.26,0.34,73.29097,"Low_Value"
"MRI_faces_111",1,1,4,1,16,75.02445,"2149.jpg","2240.jpg",51,45,0,"y",2,1,717.5,0.26,0.34,76.24136,"Low_Value"
"MRI_faces_111",1,1,4,1,17,79.02505,"2110.jpg","1173.jpg",53,46,1,"y",2,0,905.93,0.25,0.34,80.42542,"Low_Value"
"MRI_faces_111",1,1,4,1,18,84.02739,"1019.jpg","1027.jpg",50,49,1,"b",2,1,844.59,0.28,0.28,85.35975,"Low_Value"
"MRI_faces_111",1,1,4,1,19,91.02725,"1031.jpg","2181.jpg",11,13,0,"b",1,0,861.71,0.72,0.71,92.3776,"High_Value"
"MRI_faces_111",1,1,4,1,20,96.02449,"2094.jpg","2058.jpg",52,54,1,"b",2,1,813.45,0.26,0.25,97.34136,"Low_Value"
"MRI_faces_111",1,1,4,1,21,99.02452,"2240.jpg","1173.jpg",45,46,1,"b",2,1,843.43,0.34,0.34,100.3623,"Low_Value"
"MRI_faces_111",1,1,4,1,22,105.0246,"1019.jpg","2209.jpg",50,43,1,"y",2,0,924.31,0.28,0.35,106.4467,"Low_Value"
"MRI_faces_111",1,1,4,1,23,109.0247,"2209.jpg","2240.jpg",43,45,0,"b",2,0,771.25,0.35,0.34,110.2974,"Low_Value"
"MRI_faces_111",1,1,4,1,24,121.0249,"2058.jpg","2110.jpg",54,53,0,"y",2,1,814.07,0.25,0.25,122.3416,"Low_Value"
"MRI_faces_111",1,1,4,1,25,124.0249,"1246.jpg","1150.jpg",5,55,1,"b",4,1,1170.05,0.84,0.23,125.6917,"Sanity"
"MRI_faces_111",1,1,4,1,26,127.0249,"1052.jpg","1035.jpg",15,8,1,"y",1,0,893.02,0.65,0.77,128.4172,"High_Value"
"MRI_faces_111",1,1,4,1,27,131.025,"1127.jpg","2153.jpg",12,14,1,"y",1,0,707.03,0.72,0.66,132.2346,"High_Value"
"MRI_faces_111",1,1,4,1,28,137.025,"2218.jpg","2149.jpg",44,51,1,"b",2,1,1122.93,0.35,0.26,138.6419,"Low_Value"
"MRI_faces_111",1,1,4,1,29,140.0251,"2063.jpg","1052.jpg",17,15,0,"b",1,0,1183.91,0.61,0.65,141.7086,"High_Value"
"MRI_faces_111",1,1,4,1,30,149.0252,"2149.jpg","2110.jpg",51,53,0,"y",2,1,718.74,0.26,0.25,150.242,"Low_Value"
"MRI_faces_111",1,1,4,1,31,153.0253,"2218.jpg","2041.jpg",44,48,1,"b",2,1,931.7,0.35,0.31,154.4588,"Low_Value"
"MRI_faces_111",1,1,4,1,32,157.0253,"1191.jpg","1127.jpg",16,12,0,"b",1,0,1055.64,0.63,0.72,158.5754,"High_Value"
"MRI_faces_111",1,1,4,1,33,160.0253,"1202.jpg","1216.jpg",9,7,0,"b",1,0,923.66,0.76,0.79,161.4422,"High_Value"
"MRI_faces_111",1,1,4,1,34,163.0253,"1027.jpg","2125.jpg",49,47,0,"y",2,1,970.6,0.28,0.32,164.4921,"Low_Value"
"MRI_faces_111",1,1,4,1,35,173.0255,"2015.jpg","1202.jpg",18,9,1,"y",1,0,956.47,0.61,0.76,174.4757,"High_Value"
"MRI_faces_111",1,1,4,1,36,177.0256,"1035.jpg","1216.jpg",8,7,0,"b",1,0,762.35,0.77,0.79,178.2757,"High_Value"
"MRI_faces_111",1,1,4,1,37,185.0269,"1246.jpg","2164.jpg",5,56,1,"b",4,1,908.02,0.84,0.2,186.4273,"Sanity"
"MRI_faces_111",1,1,4,1,38,188.0292,"1027.jpg","2110.jpg",49,53,0,"b",2,0,1209.75,0.28,0.25,189.7278,"Low_Value"
"MRI_faces_111",1,1,4,2,1,2.013382,"2015.jpg","2063.jpg",18,17,1,"y",1,0,815.97,0.61,0.61,3.331221,"High_Value"
"MRI_faces_111",1,1,4,2,2,5.013525,"2125.jpg","2149.jpg",47,51,1,"b",2,1,688.81,0.32,0.26,6.213687,"Low_Value"
"MRI_faces_111",1,1,4,2,3,8.013456,"1019.jpg","1173.jpg",50,46,1,"y",2,0,754.85,0.28,0.34,9.280276,"Low_Value"
"MRI_faces_111",1,1,4,2,4,13.01358,"1191.jpg","2181.jpg",16,13,0,"b",1,0,791.78,0.63,0.71,14.31383,"High_Value"
"MRI_faces_111",1,1,4,2,5,18.01361,"2110.jpg","2041.jpg",53,48,1,"y",2,0,765.73,0.25,0.31,19.28053,"Low_Value"
"MRI_faces_111",1,1,4,2,6,25.01468,"2058.jpg","2240.jpg",54,45,0,"b",2,0,931.64,0.25,0.34,26.44836,"Low_Value"
"MRI_faces_111",1,1,4,2,7,29.01539,"2181.jpg","1202.jpg",13,9,1,"y",1,0,686.95,0.71,0.76,30.19909,"High_Value"
"MRI_faces_111",1,1,4,2,8,32.01769,"2015.jpg","1031.jpg",18,11,1,"y",1,0,914.62,0.61,0.72,33.43292,"High_Value"
"MRI_faces_111",1,1,4,2,9,39.01715,"2041.jpg","2240.jpg",48,45,0,"b",2,0,783.18,0.31,0.34,40.30078,"Low_Value"
"MRI_faces_111",1,1,4,2,10,43.01783,"2248.jpg","2164.jpg",6,56,1,"y",4,0,840.52,0.82,0.2,44.36418,"Sanity"
"MRI_faces_111",1,1,4,2,11,46.0184,"2209.jpg","2094.jpg",43,52,0,"b",2,0,648.92,0.35,0.26,47.16864,"Low_Value"
"MRI_faces_111",1,1,4,2,12,50.01896,"2125.jpg","2209.jpg",47,43,1,"y",2,0,932.38,0.32,0.35,51.45277,"Low_Value"
"MRI_faces_111",1,1,4,2,13,54.01968,"1127.jpg","1035.jpg",12,8,1,"y",1,0,806.69,0.72,0.77,55.331,"High_Value"
"MRI_faces_111",1,1,4,2,14,59.02063,"1191.jpg","1130.jpg",16,10,0,"y",1,1,900.7,0.63,0.73,60.42094,"High_Value"
"MRI_faces_111",1,1,4,2,15,63.02135,"2218.jpg","1173.jpg",44,46,1,"b",2,1,1154.97,0.35,0.34,64.67176,"Low_Value"
"MRI_faces_111",1,1,4,2,16,67.02193,"2058.jpg","2218.jpg",54,44,0,"y",2,1,895.39,0.25,0.35,68.41449,"Low_Value"
"MRI_faces_111",1,1,4,2,17,70.02254,"1150.jpg","2248.jpg",55,6,0,"y",4,1,779.79,0.23,0.82,71.29788,"Sanity"
"MRI_faces_111",1,1,4,2,18,80.02432,"2149.jpg","2094.jpg",51,52,0,"b",2,0,757.03,0.26,0.26,81.28138,"Low_Value"
"MRI_faces_111",1,1,4,2,19,84.0249,"2063.jpg","1130.jpg",17,10,0,"y",1,1,821.41,0.61,0.73,85.34199,"High_Value"
"MRI_faces_111",1,1,4,2,20,87.01466,"2240.jpg","1027.jpg",45,49,1,"b",2,1,861.69,0.34,0.28,88.38152,"Low_Value"
