subjectID	scanner	order	block	run	trial	onsettime	ImageLeft	ImageRight	bidIndexLeft	bidIndexRight	IsleftGo	Response	PairType	Outcome	RT	bidLeft	bidRight	ixationTime	
MRI_faces_129	 1	 1	 03	 1	 1	 2.027664e+00	 2043.jpg	 1192.jpg	 44	 48	 1	 b	 2	 1	 1424.69	 0.35	 0.29	 3.951027e+00	 
MRI_faces_129	 1	 1	 03	 1	 2	 5.027613e+00	 2024.jpg	 2058.jpg	 47	 49	 1	 x	 2	 999	 999000.00	 0.30	 0.29	 7.027714e+00	 
MRI_faces_129	 1	 1	 03	 1	 3	 8.027622e+00	 2024.jpg	 1130.jpg	 47	 54	 1	 y	 2	 0	 1221.75	 0.30	 0.19	 9.744562e+00	 
MRI_faces_129	 1	 1	 03	 1	 4	 1.302777e+01	 2006.jpg	 1255.jpg	 10	 14	 1	 b	 1	 1	 909.60	 0.75	 0.68	 1.443502e+01	 
MRI_faces_129	 1	 1	 03	 1	 5	 1.802790e+01	 1262.jpg	 1035.jpg	 9	 12	 0	 x	 1	 999	 999000.00	 0.76	 0.73	 2.002794e+01	 
MRI_faces_129	 1	 1	 03	 1	 6	 2.502796e+01	 2110.jpg	 1226.jpg	 52	 43	 1	 b	 2	 1	 1014.39	 0.21	 0.35	 2.653744e+01	 
MRI_faces_129	 1	 1	 03	 1	 7	 2.902795e+01	 2110.jpg	 1192.jpg	 52	 48	 1	 y	 2	 0	 1008.41	 0.21	 0.29	 3.052811e+01	 
MRI_faces_129	 1	 1	 03	 1	 8	 3.202807e+01	 1262.jpg	 2181.jpg	 9	 13	 0	 y	 1	 1	 1027.31	 0.76	 0.71	 3.355529e+01	 
MRI_faces_129	 1	 1	 03	 1	 9	 3.902809e+01	 1183.jpg	 2218.jpg	 51	 53	 0	 b	 2	 0	 1038.27	 0.25	 0.20	 4.056166e+01	 
MRI_faces_129	 1	 1	 03	 1	 10	 4.302817e+01	 1035.jpg	 2112.jpg	 12	 16	 1	 y	 1	 0	 952.23	 0.73	 0.66	 4.447835e+01	 
MRI_faces_129	 1	 1	 03	 1	 11	 4.602819e+01	 1130.jpg	 2218.jpg	 54	 53	 0	 b	 2	 0	 1074.21	 0.19	 0.20	 4.759502e+01	 
MRI_faces_129	 1	 1	 03	 1	 12	 5.002466e+01	 2045.jpg	 1204.jpg	 46	 45	 0	 y	 2	 1	 1257.72	 0.32	 0.33	 5.177848e+01	 
MRI_faces_129	 1	 1	 03	 1	 13	 5.402840e+01	 1255.jpg	 2089.jpg	 14	 15	 0	 y	 1	 1	 835.99	 0.68	 0.67	 5.536176e+01	 
MRI_faces_129	 1	 1	 03	 1	 14	 5.902626e+01	 1007.jpg	 2045.jpg	 50	 46	 1	 y	 2	 0	 860.09	 0.28	 0.32	 6.037852e+01	 
MRI_faces_129	 1	 1	 03	 1	 15	 6.302845e+01	 1130.jpg	 1007.jpg	 54	 50	 0	 y	 2	 1	 1234.91	 0.19	 0.28	 6.476188e+01	 
MRI_faces_129	 1	 1	 03	 1	 16	 6.702763e+01	 2089.jpg	 2015.jpg	 15	 17	 1	 b	 1	 1	 1177.72	 0.67	 0.66	 6.869537e+01	 
MRI_faces_129	 1	 1	 03	 1	 17	 7.002853e+01	 2094.jpg	 2112.jpg	 18	 16	 1	 y	 1	 0	 1105.85	 0.65	 0.66	 7.162867e+01	 
MRI_faces_129	 1	 1	 03	 1	 18	 8.002871e+01	 1255.jpg	 1216.jpg	 14	 7	 0	 b	 1	 0	 1160.62	 0.68	 0.81	 8.168039e+01	 
MRI_faces_129	 1	 1	 03	 1	 19	 8.401414e+01	 2015.jpg	 1035.jpg	 17	 12	 0	 y	 1	 1	 996.21	 0.66	 0.73	 8.551433e+01	 
MRI_faces_129	 1	 1	 03	 1	 20	 8.701446e+01	 2043.jpg	 1226.jpg	 44	 43	 1	 b	 2	 1	 1116.90	 0.35	 0.35	 8.864562e+01	 
MRI_faces_129	 1	 1	 03	 1	 21	 9.001506e+01	 1114.jpg	 1127.jpg	 6	 55	 1	 b	 4	 1	 998.29	 0.81	 0.19	 9.151541e+01	 
MRI_faces_129	 1	 1	 03	 1	 22	 9.401575e+01	 2058.jpg	 1007.jpg	 49	 50	 0	 y	 2	 1	 970.61	 0.29	 0.28	 9.549569e+01	 
MRI_faces_129	 1	 1	 03	 1	 23	 1.000168e+02	 2110.jpg	 2058.jpg	 52	 49	 1	 b	 2	 1	 1485.58	 0.21	 0.29	 1.020124e+02	 
MRI_faces_129	 1	 1	 03	 1	 24	 1.030174e+02	 2218.jpg	 2058.jpg	 53	 49	 1	 y	 2	 0	 1137.01	 0.20	 0.29	 1.046625e+02	 
MRI_faces_129	 1	 1	 03	 1	 25	 1.060178e+02	 1216.jpg	 2118.jpg	 7	 11	 1	 y	 1	 0	 1297.59	 0.81	 0.75	 1.078182e+02	 
MRI_faces_129	 1	 1	 03	 1	 26	 1.100186e+02	 1262.jpg	 2089.jpg	 9	 15	 0	 y	 1	 1	 818.78	 0.76	 0.67	 1.113460e+02	 
MRI_faces_129	 1	 1	 03	 1	 27	 1.130191e+02	 2181.jpg	 2118.jpg	 13	 11	 1	 b	 1	 1	 1117.30	 0.71	 0.75	 1.146361e+02	 
MRI_faces_129	 1	 1	 03	 1	 28	 1.160195e+02	 1035.jpg	 1255.jpg	 12	 14	 1	 y	 1	 0	 958.81	 0.73	 0.68	 1.174866e+02	 
MRI_faces_129	 1	 1	 03	 1	 29	 1.300221e+02	 2045.jpg	 2024.jpg	 46	 47	 0	 b	 2	 0	 1231.28	 0.32	 0.30	 1.317559e+02	 
MRI_faces_129	 1	 1	 03	 1	 30	 1.400238e+02	 2010.jpg	 2094.jpg	 8	 18	 0	 b	 1	 0	 1025.53	 0.80	 0.65	 1.415464e+02	 
MRI_faces_129	 1	 1	 03	 1	 31	 1.460248e+02	 2112.jpg	 2006.jpg	 16	 10	 0	 y	 1	 1	 963.61	 0.66	 0.75	 1.474797e+02	 
MRI_faces_129	 1	 1	 03	 1	 32	 1.500256e+02	 2010.jpg	 2006.jpg	 8	 10	 0	 b	 1	 0	 1306.79	 0.80	 0.75	 1.518298e+02	 
MRI_faces_129	 1	 1	 03	 1	 33	 1.560266e+02	 2094.jpg	 2118.jpg	 18	 11	 1	 y	 1	 0	 933.74	 0.65	 0.75	 1.574603e+02	 
MRI_faces_129	 1	 1	 03	 1	 34	 1.600273e+02	 2010.jpg	 2089.jpg	 8	 15	 0	 b	 1	 0	 1327.07	 0.80	 0.67	 1.618467e+02	 
MRI_faces_129	 1	 1	 03	 1	 35	 1.660154e+02	 1127.jpg	 1031.jpg	 55	 5	 0	 y	 4	 1	 1087.96	 0.19	 0.82	 1.676134e+02	 
MRI_faces_129	 1	 1	 03	 1	 36	 1.780138e+02	 1130.jpg	 1204.jpg	 54	 45	 0	 b	 2	 0	 1042.63	 0.19	 0.33	 1.795642e+02	 
MRI_faces_129	 1	 1	 03	 1	 37	 1.810142e+02	 1007.jpg	 1183.jpg	 50	 51	 1	 b	 2	 1	 1134.18	 0.28	 0.25	 1.826481e+02	 
MRI_faces_129	 1	 1	 03	 1	 38	 1.880154e+02	 1192.jpg	 2218.jpg	 48	 53	 0	 y	 2	 1	 1105.92	 0.29	 0.20	 1.896325e+02	 
