trial,time,stimulus,RT,KeyPressed,Is correct
1,,Fixation,,,
2,,Fixation,,,
3,,Fixation,,,
4,,Fixation,,,
5,,Fixation,,,
6,,Fixation,,,
7,,Fixation,,,
8,,Fixation,,,
9,,Fixation,,,
10,,Fixation,,,
11,,Fixation,,,
12,,Fixation,,,
13,,Fixation,,,
14,,Fixation,,,
15,,Fixation,,,
16,,Fixation,,,
1,0.004442,MVI_0919_new.avi,none,none,TRUE
2,1.0109,MVI_0919_new.avi,0.4596,b,TRUE
3,2.0028,MVI_0931_new.avi,none,none,TRUE
4,3.0024,MVI_0936_new.avi,none,none,TRUE
5,4.0023,MVI_0922_new.avi,none,none,TRUE
6,5.0022,MVI_0929_new.avi,none,none,TRUE
7,6.0028,MVI_0915_new.avi,none,none,TRUE
8,7.0023,MVI_0932_new.avi,none,none,TRUE
9,8.0056,MVI_0921_new.avi,none,none,TRUE
10,9.0028,MVI_0935_new.avi,none,none,TRUE
11,10.0027,MVI_0934_new.avi,none,none,TRUE
12,11.0027,MVI_0920_new.avi,none,none,TRUE
13,12.0027,MVI_0930_new.avi,none,none,TRUE
14,13.0026,MVI_0930_new.avi,0.49794,b,TRUE
15,14.0021,MVI_0937_new.avi,none,none,TRUE
16,15.0027,MVI_0917_new.avi,none,none,TRUE
1,0.0014256,RecPlayer.avi,none,none,TRUE
2,1.036,Discs.avi,none,none,TRUE
3,2.0015,Fan.avi,none,none,TRUE
4,3.0015,Coffee.avi,none,none,TRUE
5,4.0015,Candle.avi,none,none,TRUE
6,5.0014,Tennis.avi,none,none,TRUE
7,6.0015,Tennis.avi,0.41528,b,TRUE
8,7.0015,Tire.avi,none,none,TRUE
9,8.0014,Toilet.avi,none,none,TRUE
10,9.0015,Opener.avi,none,none,TRUE
11,10.0014,Opener.avi,0.5531,b,TRUE
12,11.0015,StopWatch.avi,none,none,TRUE
13,12.0015,Water.avi,none,none,TRUE
14,13.0013,Globe.avi,none,none,TRUE
15,14.0011,Flag.avi,none,none,TRUE
16,15.0015,Leaves.avi,none,none,TRUE