subjectID	scanner	order	block	run	trial	onsettime	ImageLeft	ImageRight	bidIndexLeft	bidIndexRight	IsleftGo	Response	PairType	Outcome	RT	bidLeft	bidRight	ixationTime	
MRI_faces_143	 1	 1	 03	 1	 1	 2.021658e+00	 2248.jpg	 1146.jpg	 47	 43	 1	 y	 2	 0	 1470.96	 0.31	 0.36	 3.988566e+00	 
MRI_faces_143	 1	 1	 03	 1	 2	 5.021742e+00	 1146.jpg	 2164.jpg	 43	 50	 0	 b	 2	 0	 1131.87	 0.36	 0.29	 6.655230e+00	 
MRI_faces_143	 1	 1	 03	 1	 3	 8.021768e+00	 1052.jpg	 1210.jpg	 45	 46	 1	 y	 2	 0	 1116.85	 0.34	 0.33	 9.638691e+00	 
MRI_faces_143	 1	 1	 03	 1	 4	 1.302191e+01	 2118.jpg	 2112.jpg	 13	 9	 1	 y	 1	 0	 1077.70	 0.73	 0.80	 1.460176e+01	 
MRI_faces_143	 1	 1	 03	 1	 5	 1.802202e+01	 1192.jpg	 1210.jpg	 52	 46	 1	 y	 2	 0	 1090.60	 0.28	 0.33	 1.960553e+01	 
MRI_faces_143	 1	 1	 03	 1	 6	 2.502207e+01	 2063.jpg	 1017.jpg	 18	 16	 1	 b	 1	 1	 1134.55	 0.64	 0.67	 2.665562e+01	 
MRI_faces_143	 1	 1	 03	 1	 7	 2.902214e+01	 1173.jpg	 1127.jpg	 44	 49	 1	 b	 2	 1	 1192.48	 0.34	 0.30	 3.070572e+01	 
MRI_faces_143	 1	 1	 03	 1	 8	 3.202213e+01	 1191.jpg	 2155.jpg	 6	 55	 1	 b	 4	 1	 1290.49	 0.83	 0.18	 3.380561e+01	 
MRI_faces_143	 1	 1	 03	 1	 9	 3.902251e+01	 1050.jpg	 2118.jpg	 17	 13	 0	 y	 1	 1	 1113.10	 0.66	 0.73	 4.063961e+01	 
MRI_faces_143	 1	 1	 03	 1	 10	 4.302325e+01	 2112.jpg	 1031.jpg	 9	 7	 0	 y	 1	 1	 1122.36	 0.80	 0.82	 4.464034e+01	 
MRI_faces_143	 1	 1	 03	 1	 11	 4.602374e+01	 1202.jpg	 1073.jpg	 8	 10	 0	 y	 1	 1	 1318.88	 0.80	 0.79	 4.784107e+01	 
MRI_faces_143	 1	 1	 03	 1	 12	 5.002644e+01	 2094.jpg	 1073.jpg	 11	 10	 0	 y	 1	 1	 1232.18	 0.78	 0.79	 5.175825e+01	 
MRI_faces_143	 1	 1	 03	 1	 13	 5.402636e+01	 1173.jpg	 1210.jpg	 44	 46	 1	 y	 2	 0	 1078.26	 0.34	 0.33	 5.559230e+01	 
MRI_faces_143	 1	 1	 03	 1	 14	 5.902613e+01	 1031.jpg	 1027.jpg	 7	 14	 1	 x	 1	 999	 999000.00	 0.82	 0.73	 6.102669e+01	 
MRI_faces_143	 1	 1	 03	 1	 15	 6.302678e+01	 1210.jpg	 2248.jpg	 46	 47	 0	 b	 2	 0	 1025.84	 0.33	 0.31	 6.454396e+01	 
MRI_faces_143	 1	 1	 03	 1	 16	 6.702264e+01	 1027.jpg	 1073.jpg	 14	 10	 0	 y	 1	 1	 860.98	 0.73	 0.79	 6.837784e+01	 
MRI_faces_143	 1	 1	 03	 1	 17	 7.002272e+01	 2112.jpg	 1073.jpg	 9	 10	 0	 y	 1	 1	 908.90	 0.80	 0.79	 7.142837e+01	 
MRI_faces_143	 1	 1	 03	 1	 18	 8.002286e+01	 1050.jpg	 1073.jpg	 17	 10	 0	 y	 1	 1	 1063.76	 0.66	 0.79	 8.158981e+01	 
MRI_faces_143	 1	 1	 03	 1	 19	 8.402290e+01	 2112.jpg	 2015.jpg	 9	 15	 0	 y	 1	 1	 876.72	 0.80	 0.69	 8.539744e+01	 
MRI_faces_143	 1	 1	 03	 1	 20	 8.702304e+01	 1052.jpg	 1146.jpg	 45	 43	 1	 b	 2	 1	 853.59	 0.34	 0.36	 8.837309e+01	 
MRI_faces_143	 1	 1	 03	 1	 21	 9.002302e+01	 1191.jpg	 2110.jpg	 6	 56	 1	 b	 4	 1	 900.60	 0.83	 0.16	 9.142329e+01	 
MRI_faces_143	 1	 1	 03	 1	 22	 9.402308e+01	 1073.jpg	 1017.jpg	 10	 16	 1	 b	 1	 1	 986.54	 0.79	 0.67	 9.550656e+01	 
MRI_faces_143	 1	 1	 03	 1	 23	 1.000231e+02	 1262.jpg	 1192.jpg	 48	 52	 0	 b	 2	 0	 981.49	 0.31	 0.28	 1.015067e+02	 
MRI_faces_143	 1	 1	 03	 1	 24	 1.030232e+02	 1192.jpg	 1246.jpg	 52	 51	 1	 b	 2	 1	 1048.40	 0.28	 0.28	 1.045734e+02	 
MRI_faces_143	 1	 1	 03	 1	 25	 1.060233e+02	 1146.jpg	 1226.jpg	 43	 53	 0	 y	 2	 1	 1214.36	 0.36	 0.27	 1.077400e+02	 
MRI_faces_143	 1	 1	 03	 1	 26	 1.100233e+02	 2118.jpg	 1017.jpg	 13	 16	 1	 y	 1	 0	 1123.34	 0.73	 0.67	 1.116403e+02	 
MRI_faces_143	 1	 1	 03	 1	 27	 1.130234e+02	 2015.jpg	 1050.jpg	 15	 17	 1	 b	 1	 1	 1083.20	 0.69	 0.66	 1.146069e+02	 
MRI_faces_143	 1	 1	 03	 1	 28	 1.160234e+02	 1202.jpg	 2015.jpg	 8	 15	 0	 b	 1	 0	 1084.24	 0.80	 0.69	 1.176070e+02	 
MRI_faces_143	 1	 1	 03	 1	 29	 1.300236e+02	 1262.jpg	 1226.jpg	 48	 53	 0	 b	 2	 0	 1041.06	 0.31	 0.27	 1.315570e+02	 
MRI_faces_143	 1	 1	 03	 1	 30	 1.400238e+02	 1052.jpg	 1127.jpg	 45	 49	 1	 b	 2	 1	 935.88	 0.34	 0.30	 1.414574e+02	 
MRI_faces_143	 1	 1	 03	 1	 31	 1.460247e+02	 1127.jpg	 1192.jpg	 49	 52	 0	 b	 2	 0	 1085.95	 0.30	 0.28	 1.476085e+02	 
MRI_faces_143	 1	 1	 03	 1	 32	 1.500272e+02	 1246.jpg	 1226.jpg	 51	 53	 0	 y	 2	 1	 1140.45	 0.28	 0.27	 1.516592e+02	 
MRI_faces_143	 1	 1	 03	 1	 33	 1.560279e+02	 1210.jpg	 2164.jpg	 46	 50	 0	 b	 2	 0	 937.69	 0.33	 0.29	 1.574602e+02	 
MRI_faces_143	 1	 1	 03	 1	 34	 1.600241e+02	 1262.jpg	 1052.jpg	 48	 45	 0	 y	 2	 1	 895.55	 0.31	 0.34	 1.614108e+02	 
MRI_faces_143	 1	 1	 03	 1	 35	 1.660281e+02	 2125.jpg	 2094.jpg	 12	 11	 1	 y	 1	 0	 988.49	 0.75	 0.78	 1.675119e+02	 
MRI_faces_143	 1	 1	 03	 1	 36	 1.780243e+02	 1031.jpg	 1202.jpg	 7	 8	 1	 b	 1	 1	 1073.34	 0.82	 0.80	 1.795975e+02	 
MRI_faces_143	 1	 1	 03	 1	 37	 1.810242e+02	 1050.jpg	 1031.jpg	 17	 7	 0	 y	 1	 1	 1039.37	 0.66	 0.82	 1.825646e+02	 
MRI_faces_143	 1	 1	 03	 1	 38	 1.880244e+02	 1226.jpg	 1204.jpg	 53	 54	 1	 y	 2	 0	 1047.22	 0.27	 0.25	 1.895657e+02	 
